time;m_acc_x;m_acc_y;m_acc_z;m_accG_x;m_accG_y;m_accG_z;m_rotTate_alpha;m_rotTate_beta;m_rotTate_gamma;p_lat;p_long;p_alt;p_acc;p_head;p_speed;steps;distance
3004.0;0.2;0.2;-0.3;0.4;2.8000000000000003;9.1;5.8;-0.4;6.8;55.60918552;12.99521459;117.73382568359376;29.84376335144043;331.5;0.3300000131130218;1.0;0.13114754098360656
4004.0;-0.1;-0.7000000000000001;-0.5;0.2;1.7000000000000002;9.0;-2.3;-7.0;32.300000000000004;55.6092985;12.99462517;94.933349609375;18.091238021850582;331.5;0.3199999928474426;1.0;1.4125000000000059
5005.0;-0.9;0.4;-1.5;1.6;3.5;8.0;-7.1000000000000005;-11.8;41.3;55.6092386;12.99498785;93.71197509765624;17.322465896606445;331.5;0.5400000214576721;1.0;2.2372881355932197
6014.0;1.4;-1.1;1.0;5.0;2.7;9.9;-0.7;9.9;-8.700000000000001;55.60934085;12.99511756;60.90850830078125;18.327510833740234;331.5;0.4699999988079071;1.0;3.3265306122448948
7004.0;0.0;-0.8;1.0;3.3000000000000003;3.3000000000000003;9.1;-3.9;-13.5;3.9;55.60919649;12.99509626;95.32501220703124;13.63129997253418;331.5;0.6899999976158142;1.0;4.509433962264133
7471.0;0.6000000000000001;0.3;1.4;2.5;2.4000000000000004;10.3;-72.30000000000001;38.400000000000006;11.6;55.60912751;12.99499621;74.57586669921875;10.197755813598633;333.3999938964844;0.7099999785423279;1.0;5.056603773584904
8470.0;0.6000000000000001;0.2;-0.4;2.4000000000000004;2.0;9.4;2.1;25.200000000000003;-21.300000000000004;55.60912596;12.99495824;73.8909912109375;8.32731819152832;332.6000061035156;0.6399999856948853;1.0;6.154639175257731
9474.0;-0.5;-0.6000000000000001;1.1;-0.1;1.1;10.9;-43.6;-31.8;-25.4;55.6091444;12.99494322;72.21160888671875;7.953445434570312;303.3999938964844;0.6499999761581421;1.0;7.423913043478271
10471.0;-0.4;-0.2;0.7000000000000001;0.4;1.9;10.1;11.8;-7.400000000000001;5.6;55.60914592;12.99494633;70.6737060546875;8.416155815124512;290.0;0.4099999964237213;1.0;8.717391304347785
11470.0;-0.6000000000000001;-0.4;-2.4000000000000004;0.6000000000000001;1.9;7.1000000000000005;18.700000000000003;-0.3;10.4;55.60915536;12.99495364;69.85235595703125;8.072240829467773;345.3999938964844;0.800000011920929;1.0;10.057471264367814
12470.0;0.1;0.0;-1.2000000000000002;0.6000000000000001;2.0;8.3;11.6;-14.6;35.599999999999994;55.60916424;12.99496584;69.90185546875;7.987650871276855;350.6000061035156;0.5899999737739563;1.0;11.386363636363647
13487.0;0.2;1.0;1.2000000000000002;1.2000000000000002;2.8000000000000003;10.6;-15.2;-19.700000000000003;25.8;55.60916735;12.99497162;71.09051513671875;8.381921768188477;353.0;0.6200000047683716;1.0;12.698924731182853
14487.0;-0.4;0.9;-0.5;1.4;2.7;8.6;5.7;-4.7;24.1;55.60916927;12.99497591;71.209716796875;8.382566452026367;342.1000061035156;0.6200000047683716;1.0;14.062499999999996
15487.0;-0.6000000000000001;0.0;-1.9;1.1;1.9;7.5;-4.2;18.200000000000003;-16.700000000000003;55.60917188;12.99497607;70.87127685546875;8.436291694641113;343.3999938964844;0.7699999809265137;1.0;15.287128712871262
16487.0;-0.3;-0.9;3.5;1.7000000000000002;0.5;12.0;-36.1;34.300000000000004;-35.8;55.60917756;12.99497489;71.71868896484375;8.763810157775879;351.5;1.1200000047683716;11.720338983050883;16.64044943820221
17471.0;0.2;-0.1;-0.4;2.8000000000000003;2.0;8.700000000000001;8.3;-2.5;10.4;55.60918434;12.99497784;72.170654296875;8.03999137878418;1.100000023841858;1.0199999809265137;12.700854700854698;18.023529411764706
18487.0;-0.8;-0.4;-3.9;1.1;1.6;5.5;10.9;8.700000000000001;6.0;55.60918978;12.99498575;72.51129150390625;7.876529693603516;7.599999904632568;0.8299999833106995;14.720338983050883;19.391752577319586
20473.0;-0.1;0.7000000000000001;1.8;1.9;2.4000000000000004;11.0;6.699999999999999;8.8;29.200000000000003;55.60920774;12.99499942;69.75030517578125;7.517659664154053;8.300000190734863;0.9200000166893004;18.7049180327868;22.01904761904762
21470.0;-0.4;0.5;-0.9;1.7000000000000002;2.6;8.200000000000001;14.5;5.500000000000001;8.8;55.60921799;12.99500894;70.002197265625;7.029850006103516;12.899999618530272;0.8700000047683716;19.7049180327868;23.191919191919197
22470.0;-0.2;-0.7000000000000001;-0.6000000000000001;1.1;1.1;9.0;-13.1;27.0;-45.5;55.60922424;12.99501865;69.32354736328125;6.66696834564209;359.79998779296875;0.8700000047683716;21.709401709401707;24.444444444444514
23486.0;-0.1;-0.4;4.2;1.9;1.5;13.1;-56.9;-19.0;-41.50000000000001;55.60922859;12.99502922;69.168701171875;6.263957500457764;359.6000061035156;0.7099999785423279;23.71774193548385;25.80434782608691
24488.0;-0.2;-0.7000000000000001;-1.3;1.8;2.2;8.0;1.0;-0.4;8.899999999999999;55.60923161;12.99504303;68.95355224609375;6.07316255569458;6.699999809265137;0.7200000286102295;24.723577235772332;27.13483146067415
25488.0;-1.0;-0.6000000000000001;-3.6;0.9;2.1;5.7;28.700000000000003;4.4;24.7;55.60923786;12.99505066;68.538330078125;6.176488876342773;2.799999952316284;1.0;26.72268907563025;28.517647058823528
26474.0;0.5;0.1;-2.5;2.1;2.6;7.1000000000000005;26.5;-7.699999999999999;29.700000000000006;55.60924055;12.9950593;68.7794189453125;5.7383294105529785;355.1000061035156;0.7599999904632568;28.698275862068837;29.82222222222235
27470.0;0.4;0.7000000000000001;0.6000000000000001;1.6;2.8000000000000003;9.9;-12.4;6.600000000000001;5.2;55.60924308;12.99505604;70.075439453125;5.294093132019043;341.1000061035156;0.6299999952316284;30.702479338843105;31.157303370786508
28486.0;0.3;1.3;-0.6000000000000001;2.1;3.1;8.5;0.9000000000000001;-6.699999999999999;-11.900000000000002;55.60924616;12.99504429;70.48822021484375;5.36016321182251;326.1000061035156;0.5799999833106995;31.713114754098275;32.5393258426966
29487.0;0.0;0.1;-1.5;2.1;2.2;7.6;16.900000000000002;15.8;-13.000000000000002;55.60925456;12.9950271;71.284912109375;5.671013832092285;338.79998779296875;1.1200000047683716;33.728813559321765;33.890109890110175
30469.0;0.3;-0.1;1.5;2.9000000000000004;1.9;10.8;-55.2;-4.300000000000001;-37.8;55.60926159;12.99501597;71.160888671875;6.120288848876953;354.8999938964844;0.7200000286102295;35.69999999999996;35.202247191011224
31486.0;-1.1;-0.1;-0.2;0.7000000000000001;1.7000000000000002;9.0;5.0;15.7;1.0;55.60926981;12.99500845;70.91741943359375;6.423027038574219;2.799999952316284;0.9300000071525574;36.69999999999996;36.47572815533996
32486.0;-0.3;-0.5;-2.2;0.9;1.7000000000000002;7.800000000000001;31.8;-7.1000000000000005;21.4;55.60927768;12.99499729;69.37200927734375;6.548856258392334;342.70001220703125;0.7300000190734863;38.743362831858576;37.77011494252859
33471.0;-0.4;-0.2;-0.1;1.0;1.8;10.0;23.1;9.0;27.0;55.60928202;12.9949822;69.67095947265625;6.603172779083252;318.29998779296875;0.6899999976158142;40.702479338843105;39.081632653061206
34486.0;0.2;0.4;0.1;2.1;2.6;9.5;11.7;27.0;15.5;55.60928504;12.9949659;71.10577392578125;6.546960353851318;318.20001220703125;0.5799999833106995;42.70588235294147;40.31313131313132
35486.0;-0.2;-0.5;-2.9000000000000004;1.8;1.6;6.5;23.4;21.1;16.6;55.60929168;12.99494903;71.23968505859375;7.599952697753906;324.8999938964844;1.0299999713897705;43.731092436975096;41.53999999999989
36486.0;2.4000000000000004;0.2;1.2000000000000002;4.6000000000000005;1.9;10.3;10.4;-30.3;23.0;55.60929447;12.99493768;70.7940673828125;7.498476982116699;326.20001220703125;0.449999988079071;45.72800000000024;42.77227722772298
37469.0;1.1;-1.1;0.1;3.5;0.9;9.4;-26.700000000000003;-9.2;-13.5;55.60929608;12.99492376;72.09857177734375;7.523026466369629;311.20001220703125;0.6299999952316284;47.694214876033186;43.87272727272716
38486.0;-0.7000000000000001;0.0;-1.2000000000000002;1.3;2.2;8.0;12.8;-13.1;13.4;55.60929611;12.99490247;72.1387939453125;7.296266555786133;294.0;0.6800000071525574;48.704918032787106;45.18947368421058
39470.0;-1.2000000000000002;-0.9;-0.9;-0.1;0.8;8.700000000000001;8.2;-1.2000000000000002;32.8;55.60930058;12.99487983;70.66021728515625;6.866828441619873;312.1000061035156;1.0199999809265137;50.69999999999996;46.488888888888965
40471.0;-0.8;-0.9;-0.8;-0.7000000000000001;0.4;9.5;28.200000000000003;32.0;49.9;55.60930366;12.99485825;70.458740234375;6.593003273010254;288.1000061035156;0.8100000023841858;52.70161290322579;47.82978723404254
41486.0;0.4;-0.4;2.3000000000000003;1.0;2.0;11.9;-3.5;0.2;15.8;55.60931635;12.99483377;70.3828125;6.468482494354248;322.70001220703125;1.4700000286102295;53.71200000000024;49.239130434782595
42486.0;0.7000000000000001;1.0;-3.6;1.5;2.5;5.9;-8.2;6.600000000000001;-66.2;55.60932116;12.99480952;69.0848388671875;5.647836685180664;287.8999938964844;1.1100000143051147;55.71900826446294;50.574468085106375
43486.0;0.2;2.6;0.8;8.200000000000001;1.4;6.800000000000001;-102.8;-6.600000000000001;31.9;55.60932395;12.99478313;68.28717041015625;5.386084079742432;285.8999938964844;1.0299999713897705;57.71774193548385;51.93333333333348
44469.0;-0.7000000000000001;-3.0;0.7000000000000001;4.1000000000000005;-2.0;8.9;-102.2;2.2;-25.5;55.60932532;12.9947657;68.776611328125;5.119598865509033;268.29998779296875;1.100000023841858;59.69600000000023;53.314606741573016
45485.0;-0.8;-4.6000000000000005;-2.6;4.7;-3.4000000000000004;5.7;21.7;8.600000000000001;-39.0;55.60932796;12.99474908;68.46539306640625;4.885221481323242;277.8999938964844;1.0499999523162842;60.72499999999996;54.68085106382978
46486.0;-3.5;1.0;-2.4000000000000004;3.7;-0.4;4.5;75.5;-121.2;-4.800000000000001;55.60932929;12.994729;68.01031494140625;4.671177864074707;270.0;1.0199999809265137;62.72000000000024;55.95918367346917
47485.0;1.6;0.1;1.1;9.7;-1.9;7.300000000000001;62.8;11.6;8.8;55.60932598;12.99471391;67.48138427734375;5.084165573120117;248.8000030517578;0.9900000095367432;64.7119999999996;57.25742574257433
48485.0;2.0;2.0;3.0;9.1;1.6;9.8;11.2;34.60000000000001;-14.5;55.60932133;12.99469751;67.78350830078125;4.961787223815918;251.0;1.1699999570846558;65.73109243697448;58.53333333333342
49485.0;-0.6000000000000001;0.3;-1.2000000000000002;0.7000000000000001;2.1;8.700000000000001;12.2;0.3;-21.300000000000004;55.609317;12.99467768;67.60406494140625;5.1707916259765625;251.1999969482422;1.159999966621399;67.7279999999996;59.93181818181792
50469.0;1.0;0.3;-0.2;3.1;1.6;9.2;-2.6;4.1;-26.5;55.60931485;12.99465883;65.986328125;5.397879600524902;256.5;1.1100000143051147;69.69105691056969;61.2705882352942
51469.0;1.0;0.6000000000000001;-0.6000000000000001;3.4000000000000004;1.8;8.8;-36.7;6.300000000000001;-41.3;55.60931408;12.9946399;65.486083984375;5.697556972503662;259.8999938964844;1.059999942779541;71.68548387096833;62.6595744680851
52485.0;-0.2;0.0;-0.7000000000000001;4.0;2.3000000000000003;8.0;-5.2;4.2;-9.2;55.60931082;12.99461984;64.72100830078125;5.760531902313232;245.8999938964844;1.1399999856948853;73.7083333333339;63.978947368421345
53485.0;-1.7000000000000002;-0.8;-0.9;1.9;0.9;7.800000000000001;4.5;-15.8;8.0;55.60930846;12.99460173;65.79876708984375;5.8522162437438965;256.0;1.0499999523162842;74.72357723577296;65.36956521739128
54469.0;-0.3;-0.6000000000000001;-2.6;2.9000000000000004;0.7000000000000001;7.1000000000000005;17.300000000000004;-12.7;19.5;55.60930924;12.99458146;65.40814208984375;6.132064342498779;270.8999938964844;1.059999942779541;76.68852459016415;66.62886597938166
55470.0;0.1;-0.6000000000000001;1.1;3.7;1.0;10.0;-3.8;3.7000000000000006;6.600000000000001;55.60931145;12.9945626;64.5810546875;5.827513694763184;273.5;1.0499999523162842;78.70000000000056;68.06382978723408
56469.0;-0.2;0.8;-2.5;3.9;2.0;6.300000000000001;7.8;11.7;-10.2;55.60931351;12.9945445;63.43890380859375;5.527828693389893;266.0;1.100000023841858;79.71074380165302;69.38202247191009
57485.0;0.5;0.7000000000000001;-1.4;4.5;1.7000000000000002;7.1000000000000005;5.300000000000001;3.7000000000000006;-22.1;55.60931498;12.99452645;62.860107421875;5.153719902038574;260.5;1.100000023841858;81.70634920634905;70.74468085106432
58485.0;0.9;0.5;5.0;5.5;1.1;14.7;-62.8;-16.8;-24.6;55.60931698;12.9945039;63.088623046875;5.110487461090088;259.5;1.1399999856948853;83.73109243697448;72.04123711340208
59485.0;0.0;-0.1;-1.3;4.0;1.7000000000000002;7.5;0.8;8.5;3.2;55.60931876;12.99448582;62.6495361328125;4.981954097747803;267.3999938964844;1.1399999856948853;84.72580645161352;73.29896907216505
60469.0;-1.0;-0.5;-0.7000000000000001;1.1;1.2000000000000002;8.8;27.800000000000004;17.300000000000004;2.3;55.60932255;12.99447081;61.660888671875;4.816451072692871;266.79998779296875;1.100000023841858;86.7016129032264;74.61363636363657
61469.0;0.1;-0.7000000000000001;-0.1;1.9;0.9;9.2;19.0;-17.5;37.1;55.60932207;12.99445333;61.65350341796875;4.7235541343688965;251.3000030517578;1.1399999856948853;88.70338983050821;76.08421052631581
62472.0;1.4;1.1;0.7000000000000001;4.2;2.8000000000000003;10.0;11.1;-10.0;21.300000000000004;55.60932241;12.99443468;62.8843994140625;4.632644176483154;253.8000030517578;1.090000033378601;90.69747899159634;77.3764705882354
63485.0;-0.7000000000000001;0.9;-2.7;3.0;2.8000000000000003;6.0;-1.4;10.4;-10.5;55.60932049;12.99441835;63.6640625;4.462602615356445;243.3000030517578;1.090000033378601;91.7119999999996;78.87804878048803
64468.0;-0.3;0.3;-3.1;3.7;1.9;5.800000000000001;19.6;36.3;-18.4;55.60931581;12.99440206;64.26007080078125;4.377352714538574;241.6000061035156;1.1100000143051147;93.71794871794901;80.24719101123594
65485.0;0.7000000000000001;-0.6000000000000001;0.4;4.5;1.2000000000000002;9.4;5.300000000000001;0.3;-0.4;55.6093139;12.99438462;64.73590087890625;4.158854961395264;254.6000061035156;1.1299999952316284;95.7199999999996;81.65517241379298
66485.0;1.8;-0.7000000000000001;1.4;6.300000000000001;1.9;9.6;-56.2;6.1000000000000005;-27.1;55.60930723;12.99436298;64.74798583984375;4.015819549560547;238.5;1.190000057220459;96.7119999999996;83.12765957446817
67486.0;-0.2;-0.4;-0.8;4.4;3.0;6.800000000000001;10.0;-9.8;-8.5;55.60929885;12.99434071;64.7508544921875;3.88954496383667;234.8000030517578;1.1399999856948853;98.71311475409858;84.48275862068957
68484.0;-1.4;-1.2000000000000002;-1.8;2.5;1.5;7.2;51.1;-4.0;27.2;55.60929214;12.99431583;64.6231689453125;3.8724327087402335;247.1999969482422;1.2000000476837158;100.7083333333339;85.86363636363666
69468.0;-0.3;-0.2;-0.9;3.0;1.9;8.1;-1.7;2.1;4.7;55.60928886;12.99429452;65.120849609375;3.845487594604492;255.6999969482422;1.149999976158142;102.70731707317132;87.28571428571422
70468.0;0.4;1.3;2.0;3.0;3.1;11.1;-19.300000000000004;-6.4;21.7;55.60928277;12.9942722;65.21246337890625;3.825896263122559;238.8999938964844;1.2300000190734863;103.68548387096833;88.71764705882374
71485.0;0.5;0.6000000000000001;-0.1;4.2;3.1;8.5;6.8;-5.4;-7.0;55.6092781;12.99424848;65.2232666015625;3.7947781085968018;242.5;1.190000057220459;105.72649572649603;90.17777777777769
72469.0;-0.9;0.2;-3.6;1.5;2.5;5.7;-3.1;18.8;-33.300000000000004;55.60927396;12.9942255;65.63525390625;3.790092468261719;243.3000030517578;1.2000000476837158;107.71774193548448;91.5393258426966
73485.0;1.9;-0.7000000000000001;0.1;4.800000000000001;2.0;8.8;9.2;-33.300000000000004;-24.7;55.60926732;12.99420308;65.5057373046875;3.790092468261719;240.6000061035156;1.2599999904632568;109.7016129032264;92.9318181818185
74484.0;1.1;0.1;-0.1;2.7;3.1;9.2;-4.0;12.6;7.400000000000001;55.60926091;12.99418302;65.337646484375;3.790092468261719;230.8000030517578;1.25;110.7118644067794;94.22500000000005
75468.0;0.1;0.2;1.0;1.3;1.7000000000000002;11.2;-14.7;-13.6;5.300000000000001;55.60925831;12.99415887;65.13134765625;3.8475961685180655;250.6000061035156;1.2999999523162842;112.71900826446294;95.70588235294139
76471.0;-0.4;-0.4;-1.9;0.9;1.6;6.9;23.4;-0.9000000000000001;20.7;55.60925771;12.99413532;65.49835205078125;4.021332740783691;257.6000061035156;1.2300000190734863;114.68644067796585;97.09411764705885
77487.0;-0.3;-0.4;1.0;1.2000000000000002;1.3;10.5;-2.1;-27.2;29.200000000000003;55.60925695;12.99411235;65.75787353515625;4.025963306427002;262.79998779296875;1.2400000095367432;116.72413793103465;98.49450549450533
78468.0;0.7000000000000001;1.0;2.5;3.4000000000000004;3.0;11.7;-23.4;7.8;-11.2;55.60925709;12.99408916;66.31475830078125;4.004550457000732;265.3999938964844;1.25;117.69672131147563;99.83529411764731
79473.0;0.6000000000000001;1.0;0.3;3.2;3.1;8.8;11.4;9.9;-10.6;55.60925654;12.99406506;66.491455078125;4.121565818786621;260.20001220703125;1.2899999618530271;119.69105691056969;101.15909090909096
80484.0;-0.8;0.2;-3.5;2.6;2.5;5.4;-5.6;14.400000000000002;-22.5;55.60925682;12.99404088;67.51068115234375;4.080371856689453;270.0;1.2999999523162842;121.71666666666724;102.57303370786514
81467.0;-0.1;-0.6000000000000001;4.3;3.9;0.9;13.5;-5.500000000000001;-2.4000000000000004;-19.200000000000003;55.60925819;12.99401577;67.0980224609375;3.790092468261719;271.0;1.25;123.69421487603319;103.8901098901096
82484.0;0.7000000000000001;-0.3;1.2000000000000002;5.1000000000000005;1.6;10.2;-10.1;-10.9;8.4;55.60926264;12.9939915;65.48883056640625;3.790817975997925;272.0;1.2000000476837158;125.73553719008278;105.25287356321834
83484.0;-1.1;-0.4;-3.8;2.5;1.6;5.0;14.900000000000002;-7.6;14.6;55.60926632;12.99396664;65.15966796875;3.790092468261719;261.29998779296875;1.2599999904632568;126.71774193548448;106.68292682926847
84467.0;-0.2;-0.2;1.0;3.4000000000000004;1.5;10.0;9.2;-34.900000000000006;24.5;55.60926831;12.99394424;64.59033203125;3.790092468261719;267.20001220703125;1.2300000190734863;128.69166666666604;107.9893617021283
85467.0;0.7000000000000001;0.9;3.2;4.1000000000000005;2.2;12.0;-58.1;3.0;-13.1;55.60927142;12.99392298;63.0474853515625;3.790092468261719;263.3999938964844;1.2200000286102295;130.7073170731701;109.38202247191009
86468.0;0.2;1.0;-0.3;3.4000000000000004;2.7;8.9;9.4;8.8;-0.6000000000000001;55.60927464;12.99390878;61.38409423828125;3.790092468261719;260.1000061035156;1.2200000286102295;131.69354838709614;110.77906976744168
87484.0;-0.5;1.0;-2.0;3.2;2.3000000000000003;6.9;3.5;1.7;-8.4;55.60927698;12.9938921;60.5145263671875;3.790092468261719;264.20001220703125;1.3200000524520874;133.728813559323;112.06818181818184
88467.0;0.6000000000000001;0.2;-1.6;4.4;1.9;7.4;24.1;5.500000000000001;-5.7;55.60927647;12.99386986;60.48541259765625;3.790092468261719;253.5;1.2400000095367432;135.7083333333327;113.44444444444429
89471.0;0.7000000000000001;-0.1;2.6;4.3;1.4;11.3;-55.8;-11.000000000000002;-31.8;55.60927796;12.9938487;60.2113037109375;3.790092468261719;261.6000061035156;1.2300000190734863;137.68548387096712;114.84444444444404
90484.0;1.4;0.0;-0.3;5.9;2.2;9.2;-16.3;-9.4;8.5;55.60927798;12.99382848;60.0198974609375;3.790092468261719;255.3000030517578;1.2400000095367432;138.728813559323;116.27272727272737
91486.0;-0.2;0.4;-3.3000000000000003;1.1;1.9;6.4;18.1;-1.3;10.3;55.60927829;12.99380745;59.23858642578125;3.790092468261719;261.1000061035156;1.2599999904632568;140.72580645161224;117.71951219512214
92467.0;-0.4;-0.3;-1.1;1.0;0.9;8.700000000000001;-7.9;-1.1;15.7;55.60927876;12.99378406;58.56854248046875;3.790092468261719;259.5;1.350000023841858;142.69918699186928;119.10526315789477
93483.0;-0.8;-1.0;-1.9;0.5;0.1;8.3;15.3;25.300000000000004;34.0;55.60927802;12.99376173;57.990478515625;3.790092468261719;260.3999938964844;1.340000033378601;144.69747899159634;120.43373493975923
94467.0;-0.1;1.2000000000000002;1.1;1.5;2.1;10.3;-24.1;-9.0;13.7;55.60927468;12.99374241;57.8941650390625;3.790092468261719;253.1999969482422;1.2699999809265137;145.6890756302518;121.9220779220778
95467.0;0.4;0.8;-1.3;2.2;1.8;7.9;-0.6000000000000001;12.4;-12.2;55.60927179;12.99372068;57.50177001953125;3.790092468261719;257.3999938964844;1.3700000047683716;147.69354838709614;123.44303797468373
96490.0;0.0;0.2;-4.4;1.9;0.9;5.4;20.6;35.5;-12.8;55.60927209;12.99369203;58.101806640625;3.790092468261719;270.3999938964844;1.440000057220459;149.7096774193542;125.02173913043478
97485.0;0.8;0.3;1.9;3.2;0.8;11.8;16.3;4.9;10.8;55.60927205;12.99366727;57.9345703125;3.790092468261719;267.70001220703125;1.4800000190734863;151.72268907562994;126.42857142857137
98485.0;0.6000000000000001;-0.4;0.7000000000000001;3.6;1.1;10.1;-53.6;20.7;-43.70000000000001;55.60927161;12.99364739;57.294677734375;3.790092468261719;265.29998779296875;1.3300000429153442;152.695652173913;127.87341772151936
99467.0;-0.4;-0.2;0.4;2.2;1.9;9.1;3.7000000000000006;-20.8;2.9;55.60927236;12.99362842;57.64447021484375;3.790092468261719;262.79998779296875;1.2999999523162842;154.70161290322517;129.2790697674418
100483.0;-1.7000000000000002;-1.8;-1.6;0.6000000000000001;1.6;7.5;-0.1;98.7;32.9;55.60927118;12.99360627;57.5675048828125;3.790092468261719;262.5;1.309999942779541;156.7203389830518;130.68539325842693
101484.0;-1.0;-1.4;-0.2;2.7;2.7;8.1;-12.3;-8.4;-2.1;55.60927198;12.99358385;57.64422607421875;3.790092468261719;270.0;1.350000023841858;158.72580645161224;132.15116279069764
102483.0;1.7000000000000002;0.4;7.5;5.0;2.6;16.900000000000002;-56.2;12.1;24.0;55.60927277;12.99356273;58.12017822265625;3.790092468261719;272.8999938964844;1.3200000524520874;159.7096774193542;133.53846153846206
103467.0;0.8;1.1;1.3;2.9000000000000004;2.5;10.6;1.0;2.6;-4.7;55.60927043;12.99353935;58.50445556640625;3.790092468261719;250.6000061035156;1.3899999856948853;161.70085470085382;134.92771084337392
104489.0;-0.6000000000000001;-0.2;-2.5;1.8;1.5;6.9;7.0;8.899999999999999;-10.5;55.60926836;12.99351502;58.87799072265625;3.790092468261719;262.3999938964844;1.340000033378601;163.73553719008152;136.27551020408157
105483.0;0.6000000000000001;-0.6000000000000001;-0.5;3.3000000000000003;0.5;9.2;14.0;13.900000000000002;6.2;55.6092668;12.99349081;58.39801025390625;3.790092468261719;263.0;1.3300000429153442;165.7096774193542;137.5681818181813
106468.0;1.5;-0.2;1.8;3.2;2.1;10.9;-16.1;-24.4;-9.8;55.60926518;12.99347281;59.01605224609375;3.790092468261719;261.0;1.1799999475479126;167.7068965517243;138.8709677419347
107483.0;0.2;-0.7000000000000001;-2.4000000000000004;3.6;2.6;6.6000000000000005;40.8;-11.8;19.4;55.60926342;12.99345166;58.48785400390625;3.790092468261719;265.1000061035156;1.2899999618530271;168.7213114754088;140.2696629213483
108483.0;-1.2000000000000002;-0.6000000000000001;-0.3;2.0;1.5;8.9;36.5;-4.800000000000001;33.400000000000006;55.60926118;12.99342958;58.02960205078125;3.790092468261719;264.3999938964844;1.2699999809265137;170.69672131147442;141.63218390804664
109466.0;0.4;0.7000000000000001;5.1000000000000005;3.9;2.7;14.1;-12.3;-16.8;-7.400000000000001;55.60925925;12.99340762;57.41583251953125;3.790092468261719;259.20001220703125;1.2999999523162842;172.68292682926767;142.95744680850999
110483.0;0.8;1.6;1.1;3.4000000000000004;3.3000000000000003;10.4;-2.4000000000000004;16.700000000000003;-31.2;55.60926075;12.993383;57.38189697265625;3.790092468261719;266.0;1.25;173.7190082644617;144.31460674157302
111483.0;-0.8;0.2;-3.8;0.4;2.5;5.9;15.3;16.900000000000002;-19.200000000000003;55.60925982;12.993358;56.91644287109375;3.790092468261719;259.70001220703125;1.3899999856948853;175.7107438016518;145.6976744186045
112483.0;0.0;-0.7000000000000001;-0.3;1.4;1.1;9.1;-3.8;15.2;6.300000000000001;55.60925948;12.99333697;57.22149658203125;3.790092468261719;264.0;1.2200000286102295;177.71774193548322;147.04494382022472
113483.0;-0.2;-0.6000000000000001;0.3;2.8000000000000003;1.8;9.0;-51.50000000000001;-29.300000000000004;-31.3;55.60925638;12.99331571;56.9349365234375;3.790092468261719;258.20001220703125;1.2599999904632568;179.7142857142854;148.4137931034487
114487.0;-0.8;-1.8;-1.8;4.4;-1.4;6.9;78.9;35.9;-11.5;55.6092562;12.99329244;56.43487548828125;3.790092468261719;267.79998779296875;1.1799999475479126;180.71774193548322;149.80000000000064
115483.0;-1.5;0.5;-0.3;3.2;-0.3;8.4;77.60000000000001;1.0;39.8;55.60925262;12.99326892;56.23046875;3.790092468261719;256.3999938964844;1.309999942779541;182.71200000000087;151.20000000000016
116471.0;2.4000000000000004;3.2;5.2;7.2;1.1;14.1;2.4000000000000004;-2.3;29.700000000000006;55.60924747;12.99324782;55.9112548828125;3.790092468261719;245.1000061035156;1.2899999618530271;184.7142857142854;152.49504950494992
117483.0;0.7000000000000001;0.7000000000000001;0.0;5.4;-0.1;8.4;-37.50000000000001;1.5;-22.700000000000003;55.60924442;12.9932287;55.32330322265625;3.790092468261719;248.3000030517578;1.3700000047683716;185.72222222222206;153.90243902438942
118483.0;-1.4;0.3;-3.3000000000000003;3.2;-0.1;5.4;5.8;12.6;-10.0;55.60924039;12.99321179;54.78826904296875;3.790092468261719;251.6000061035156;1.309999942779541;187.7235772357717;155.33333333333326
119482.0;0.9;-0.3;2.3000000000000003;6.1000000000000005;0.0;9.7;-24.0;6.699999999999999;-17.5;55.6092355;12.99319053;54.37042236328125;3.790092468261719;253.5;1.399999976158142;189.72499999999934;156.74999999999932
120486.0;-0.1;-2.4000000000000004;2.9000000000000004;4.800000000000001;-1.2000000000000002;11.4;-81.10000000000001;9.0;-35.7;55.60923346;12.99317106;53.9383544921875;3.790092468261719;253.1000061035156;1.2999999523162842;191.7280000000009;158.090909090909
121483.0;-1.1;-1.9;-1.6;4.4;-0.4;6.4;40.9;-17.799999999999997;-10.8;55.60923027;12.9931532;53.59234619140625;3.790092468261719;252.1000061035156;1.2599999904632568;192.7096774193542;159.48837209302314
122468.0;-1.1;0.5;-1.9;4.3;0.8;6.5;75.3;-9.5;49.9;55.60922624;12.99313715;52.85491943359375;3.790092468261719;251.6999969482422;1.2599999904632568;194.6803278688515;160.9047619047617
123466.0;0.7000000000000001;1.0;2.7;6.1000000000000005;-0.4;10.8;32.6;-4.9;7.0;55.60922345;12.9931186;52.587890625;3.790092468261719;252.1000061035156;1.2100000381469729;196.69999999999936;162.29069767441854
124483.0;1.9;1.0;3.1;7.0;-0.3;11.4;-24.9;6.300000000000001;4.4;55.60922158;12.99310031;52.618896484375;3.790092468261719;249.8999938964844;1.2799999713897705;197.70634920634905;163.66666666666606
125484.0;-0.4;1.1;-1.5;4.800000000000001;0.6000000000000001;6.6000000000000005;-29.90000000000001;-4.7;-9.8;55.60922116;12.99307749;52.79425048828125;3.790092468261719;257.0;1.309999942779541;199.7073170731701;165.02222222222224
126484.0;1.6;2.7;-0.5;7.4;2.1;7.9;-37.7;18.0;-4.0;55.60921883;12.99305444;51.89019775390625;3.790092468261719;255.6999969482422;1.2699999809265137;201.7190082644617;166.40000000000032
127482.0;-0.8;-1.7000000000000002;1.5;5.1000000000000005;-0.9;9.6;-61.3;11.1;-66.3;55.60921623;12.99303329;51.32989501953125;3.790092468261719;253.8000030517578;1.2400000095367432;203.71774193548322;167.74468085106332
128482.0;-1.9;-2.1;-1.5;4.4;-1.4;7.2;10.0;-23.2;-32.9;55.60921391;12.99301358;50.699951171875;3.790092468261719;255.6999969482422;1.2400000095367432;204.7096774193542;169.063829787234
129484.0;-0.9;0.4;-0.9;4.9;0.5;7.4;78.0;-19.0;35.9;55.60921576;12.99299222;50.38018798828125;3.790092468261719;267.5;1.2899999618530271;206.7190082644617;170.35294117647027
130487.0;0.0;2.0;2.3000000000000003;5.300000000000001;0.4;10.6;30.3;-15.1;43.900000000000006;55.6092163;12.99297205;50.05889892578125;3.790092468261719;274.0;1.190000057220459;208.7235772357717;171.5742574257419
131482.0;1.0;0.6000000000000001;1.0;6.1000000000000005;-0.2;8.9;-23.2;0.7;-5.6;55.60921676;12.99295171;50.27459716796875;3.790092468261719;261.29998779296875;1.1399999856948853;209.70400000000086;172.84946236559063
132482.0;-2.2;0.9;-2.3000000000000003;3.1;-0.1;5.9;-11.8;19.200000000000003;-35.4;55.60921449;12.99293083;50.43963623046875;3.790092468261719;252.8999938964844;1.340000033378601;211.73109243697448;174.20833333333314
133482.0;0.9;-0.7000000000000001;2.3000000000000003;6.4;-0.8;10.4;-31.6;-31.4;48.6;55.60921225;12.99291004;49.783447265625;3.790092468261719;254.0;1.25;213.7280000000009;175.510638297872
134483.0;0.8;-3.3000000000000003;1.0;6.6000000000000005;-1.7000000000000002;8.9;-23.800000000000004;0.4;-44.4;55.60920974;12.99288803;49.4232177734375;3.790092468261719;257.3999938964844;1.2899999618530271;215.70400000000086;176.8850574712653
135482.0;-1.8;-2.8000000000000003;-2.6;3.6;-1.7000000000000002;5.5;58.1;-15.2;-20.3;55.60920538;12.99286922;49.7164306640625;3.790092468261719;244.6000061035156;1.25;216.69600000000085;178.23809523809518
136484.0;-0.8;0.6000000000000001;0.1;4.5;-0.1;8.6;92.2;-23.4;55.900000000000006;55.60920031;12.99285316;49.4310302734375;3.790092468261719;235.1999969482422;1.2699999809265137;218.7142857142854;179.62499999999943
137465.0;1.3;2.9000000000000004;4.1000000000000005;6.2;1.4;12.3;-13.200000000000005;9.6;11.5;55.60919397;12.99283793;49.00726318359375;3.790092468261719;218.0;1.2400000095367432;220.69841269841254;181.0618556701031
138482.0;1.3;1.7000000000000002;0.4;6.300000000000001;0.6000000000000001;8.6;-21.200000000000003;10.5;-10.2;55.60918879;12.99282067;49.2620849609375;3.790092468261719;226.6000061035156;1.2599999904632568;221.70491803278588;182.3707865168539
139482.0;-1.6;1.2000000000000002;-2.4000000000000004;3.7;0.3;5.800000000000001;-21.7;12.6;-20.5;55.60918456;12.99280272;48.879150390625;3.790092468261719;231.3999938964844;1.2300000190734863;223.71666666666601;183.77906976744168
140482.0;1.5;1.2000000000000002;1.7000000000000002;7.0;1.2000000000000002;9.4;-42.1;-4.4;44.4;55.60918045;12.9927834;49.129150390625;3.790092468261719;240.5;1.3300000429153442;225.7235772357717;185.22916666666646
141467.0;-0.1;-4.7;1.3;5.0;-2.9000000000000004;9.6;-65.5;4.0;-55.0;55.60917234;12.99276097;48.84124755859375;3.790092468261719;225.6000061035156;1.5499999523162842;227.69600000000085;186.53333333333376
142467.0;0.3;0.0;-2.3000000000000003;2.3000000000000003;3.9;7.5;16.200000000000003;3.8;8.899999999999999;55.60916565;12.99274524;49.154541015625;3.790092468261719;205.8000030517578;1.3600000143051147;228.7024793388419;187.85263157894647
143482.0;-0.1;-0.6000000000000001;-2.3000000000000003;0.8;2.5;6.800000000000001;-13.4;-3.3000000000000007;9.8;55.60916101;12.99272803;49.72796630859375;3.790092468261719;213.8999938964844;1.2999999523162842;230.7213114754088;189.26666666666688
144481.0;0.6000000000000001;1.1;1.9;6.1000000000000005;-0.3;10.3;13.6;0.6000000000000001;33.2;55.60915595;12.99271336;49.47003173828125;3.790092468261719;207.8000030517578;1.2599999904632568;232.71774193548322;190.63043478260948
145481.0;1.6;0.1;1.8;6.9;-0.7000000000000001;9.9;-26.200000000000003;-5.9;0.7;55.60914936;12.9927002;50.081298828125;3.790092468261719;202.3000030517578;1.2999999523162842;233.71794871794782;191.9770114942539
146481.0;-1.5;0.7000000000000001;-2.7;3.8;0.0;5.6000000000000005;-3.3000000000000007;7.500000000000001;-5.1000000000000005;55.60914024;12.99269096;50.73529052734375;3.790092468261719;192.8000030517578;1.340000033378601;235.7280000000009;193.27999999999975
147485.0;1.2000000000000002;-0.3;2.7;6.800000000000001;-0.5;10.4;-13.000000000000002;-31.7;83.60000000000001;55.60913038;12.99268476;51.91119384765625;3.790092468261719;182.3000030517578;1.309999942779541;237.71200000000087;194.56521739130505
148482.0;1.5;-2.8000000000000003;1.2000000000000002;7.4;-1.5;8.9;-34.900000000000006;-2.1;-13.200000000000005;55.60912001;12.99267918;52.2978515625;3.790092468261719;181.5;1.2699999809265137;239.72499999999934;195.893617021276
149481.0;-0.8;-1.9;-2.0;4.9;-0.8;6.0;38.50000000000001;-8.3;-21.1;55.60911005;12.99267793;53.2685546875;3.790092468261719;167.5;1.2400000095367432;240.7280000000009;197.28888888888912
150481.0;-2.0;0.3;-0.7000000000000001;3.5;0.0;7.800000000000001;50.900000000000006;-3.9;24.7;55.60909977;12.99267549;53.63714599609375;3.790092468261719;170.8000030517578;1.25;242.70161290322517;198.674418604651
151481.0;1.9;1.6;2.8000000000000003;7.6;1.5;11.3;7.6;2.5;-5.1000000000000005;55.60908838;12.99267152;54.437744140625;3.790092468261719;173.3000030517578;1.2899999618530271;244.694214876032;200.07865168539325
152481.0;1.4;0.5;1.6;7.0;0.4;10.1;-10.7;-7.6;-0.8;55.60907513;12.99267274;53.77545166015625;3.790092468261719;168.60000610351562;1.2599999904632568;246.42857142857082;201.42553191489333
153482.0;-0.2;2.0;-2.1;5.5;0.9;6.0;-17.200000000000003;-0.2;-6.4;55.60906244;12.99267242;53.546875;3.790092468261719;170.60000610351562;1.2400000095367432;247.4126984126981;202.83333333333314
154481.0;1.0;0.4;-2.0;4.2;3.7;7.0;-8.0;43.6;2.7;55.60905024;12.99267281;53.03765869140625;3.790092468261719;165.0;1.3700000047683716;249.7073170731701;204.32558139534876
155481.0;0.2;1.1;3.5;2.7;3.8;12.4;-30.000000000000004;-54.9;-2.0;55.60903728;12.9926724;52.4083251953125;3.790092468261719;164.6999969482422;1.340000033378601;251.71311475409735;205.74999999999932
156498.0;0.1;-2.2;-2.0;4.4;0.8;6.1000000000000005;-9.7;-9.9;4.5;55.60902435;12.99266799;51.96612548828125;3.790092468261719;170.5;1.3300000429153442;252.7398373983733;207.1935483870966
157481.0;-1.0;-1.1;-2.4000000000000004;4.800000000000001;0.4;5.5;77.00000000000001;12.1;9.4;55.60901237;12.992664;51.82275390625;3.790092468261719;177.89999389648438;1.2799999713897705;254.71200000000087;208.51648351648402
158465.0;0.3;0.2;3.3000000000000003;5.5;-0.2;11.5;38.3;-15.5;20.9;55.60900012;12.99266653;50.57781982421875;3.790092468261719;160.5;1.3200000524520874;257.41176470588175;209.95061728395137
159484.0;2.4000000000000004;1.2000000000000002;2.5;7.800000000000001;0.4;10.6;-25.4;0.5;-3.4;55.60898842;12.99266642;49.842529296875;3.790092468261719;170.10000610351562;1.2999999523162842;258.4516129032245;211.29473684210495
160481.0;-0.1;0.2;-0.4;4.7;-0.6000000000000001;7.6;-41.6;-2.7;3.3000000000000007;55.60897593;12.9926691;49.63238525390625;3.790092468261719;161.3000030517578;1.3200000524520874;259.70399999999836;212.63218390804664
161482.0;-1.8;1.0;-2.8000000000000003;3.5;0.9;5.6000000000000005;-38.7;20.0;-18.6;55.60896493;12.9926718;48.9945068359375;3.790092468261719;163.10000610351562;1.3200000524520874;261.73109243697695;214.08080808080808
162483.0;-0.7000000000000001;-1.2000000000000002;1.9;4.4;-0.1;10.1;-83.5;0.4;6.8;55.60895242;12.99267279;48.9271240234375;3.790092468261719;164.8000030517578;1.340000033378601;263.72580645161224;215.37209302325573
163482.0;-0.4;-4.0;0.7000000000000001;4.9;-1.5;8.200000000000001;-6.300000000000001;-22.000000000000004;-14.5;55.60893942;12.99267099;48.44415283203125;3.790092468261719;175.89999389648438;1.3600000143051147;265.70634920634905;216.79545454545382
164497.0;-1.3;-1.4;-0.6000000000000001;4.2;0.4;7.6;44.2;-17.1;-17.300000000000004;55.60892756;12.99267182;48.29327392578125;3.790092468261719;170.1999969482422;1.25;266.7154471544709;218.25773195876297
165481.0;-0.9;-0.3;0.8;4.4;0.6000000000000001;9.2;21.300000000000004;0.6000000000000001;18.3;55.60891549;12.99267587;47.97674560546875;3.790092468261719;165.0;1.25;268.7203389830494;219.5632183908052
166481.0;0.5;1.9;4.1000000000000005;5.6000000000000005;1.7000000000000002;12.6;0.0;3.9;15.1;55.60890334;12.99267818;48.06341552734375;3.790092468261719;172.60000610351562;1.2799999713897705;269.7073170731701;221.04166666666663
167481.0;0.4;1.0;0.3;5.5;0.9;8.3;-9.5;-2.5;-3.4;55.60889096;12.99267701;47.8302001953125;3.790092468261719;176.8000030517578;1.2699999809265137;271.7073170731701;222.37209302325573
168482.0;-2.4000000000000004;0.6000000000000001;-2.8000000000000003;2.9000000000000004;0.8;5.300000000000001;-23.6;7.300000000000001;-24.9;55.6088795;12.99268326;47.04840087890625;3.790092468261719;151.60000610351562;1.350000023841858;273.7190082644617;223.8536585365846
169481.0;0.7000000000000001;-0.3;2.8000000000000003;6.5;-0.2;10.9;-49.2;-5.1000000000000005;52.80000000000001;55.60886635;12.99268567;47.14227294921875;3.790092468261719;166.8000030517578;1.3200000524520874;275.71199999999834;225.20930232558135
170466.0;1.4;-3.3000000000000003;-0.3;6.7;-1.5;7.7;-36.6;-1.8000000000000005;-21.7;55.60885164;12.99268297;46.21917724609375;3.818121910095215;176.3000030517578;1.3300000429153442;277.6854838709671;226.6749999999994
171482.0;-1.6;-2.7;-1.1;4.0;-1.0;6.9;37.3;1.9;-25.1;55.60883722;12.99268307;46.192138671875;3.8913185596466064;164.1999969482422;1.1699999570846558;278.7190082644617;228.04444444444448
172481.0;-0.3;-0.1;-1.3;4.9;0.4;7.5;103.0;-5.8;8.2;55.60882335;12.99268709;45.604736328125;4.005506038665772;158.1999969482422;1.25;280.7235772357717;229.44186046511618
173480.0;1.1;1.4;2.4000000000000004;6.5;0.5;11.2;54.1;-21.500000000000004;34.900000000000006;55.60881033;12.9926896;45.1734619140625;4.074420928955078;160.5;1.2799999713897705;282.70634920634905;230.88372093023236
174483.0;1.4;0.8;2.9000000000000004;7.2;0.3;11.0;-47.3;8.100000000000001;-8.700000000000001;55.60879642;12.99269354;45.061279296875;4.119598865509033;158.5;1.2899999618530271;283.72499999999934;232.26666666666688
175480.0;-1.2000000000000002;1.7000000000000002;-0.5;4.3;1.0;7.4;-41.2;-4.2;15.1;55.60878529;12.99270598;45.44537353515625;4.157585620880127;134.0;1.3899999856948853;285.7199999999983;233.69047619047603
176465.0;2.0;2.6;0.3;7.7;1.9;8.6;-56.2;29.600000000000005;18.1;55.60877113;12.99271236;45.40313720703125;4.036182403564453;153.6999969482422;1.3700000047683716;287.6959999999984;235.0842105263157
177463.0;-1.4;-3.2;4.1000000000000005;4.3;-2.4000000000000004;11.9;-80.0;6.600000000000001;-14.400000000000002;55.60875771;12.99271806;44.44024658203125;3.886732578277588;152.89999389648438;1.2899999618530271;289.6774193548381;236.40449438202245
178480.0;0.1;-4.2;0.2;5.9;-2.3000000000000003;8.0;24.4;-20.2;-21.0;55.60874424;12.99271662;44.58978271484375;3.790092468261719;165.8000030517578;1.340000033378601;290.7083333333327;237.78260869565315
179463.0;-0.4;-0.3;-1.9;5.2;-0.6000000000000001;6.4;100.0;-17.9;-15.8;55.60873241;12.99271971;45.82525634765625;3.790092468261719;148.10000610351562;1.309999942779541;292.6959999999984;239.1956521739133
180463.0;1.3;0.6000000000000001;2.5;6.800000000000001;-0.5;11.1;51.70000000000001;-13.200000000000005;1.8000000000000005;55.60872355;12.99272082;46.348388671875;3.790092468261719;152.39999389648438;1.2400000095367432;294.6854838709671;240.60975609756042
181481.0;1.6;2.4000000000000004;5.7;6.9;1.4;13.0;-27.4;6.1000000000000005;7.8;55.60871333;12.99271791;46.81024169921875;3.790092468261719;166.1999969482422;1.309999942779541;295.7190082644617;242.06521739130443
182482.0;0.5;1.1;-0.7000000000000001;5.800000000000001;-0.2;8.0;-30.7;10.3;-11.3;55.60870254;12.99272275;47.10174560546875;3.790092468261719;154.89999389648438;1.3200000524520874;297.71199999999834;243.4318181818178
183480.0;-0.8;1.7000000000000002;-2.5;4.5;1.0;5.7;-29.500000000000004;13.6;-28.1;55.60869172;12.99272724;48.56658935546875;3.790092468261719;155.3000030517578;1.2599999904632568;299.70161290322517;244.82222222222288
184480.0;1.8;-0.3;2.0;7.6;-0.2;10.0;-41.50000000000001;-22.8;57.00000000000001;55.6086799;12.9927301;49.96563720703125;3.790092468261719;151.3000030517578;1.25;301.7190082644617;246.23255813953483
185480.0;-0.2;-5.2;1.1;5.1000000000000005;-3.0;9.2;-75.1;3.4;-45.0;55.60867177;12.99273996;49.208740234375;3.797157287597656;131.89999389648438;1.350000023841858;303.7177419354832;247.6590909090903
186497.0;-1.7000000000000002;-4.3;-2.3000000000000003;4.1000000000000005;-1.7000000000000002;5.2;36.9;-6.500000000000001;-44.00000000000001;55.60866391;12.99274467;48.789306640625;3.929203510284424;146.10000610351562;1.3300000429153442;304.7279999999983;249.08888888888896
187480.0;-0.8;-0.1;-1.3;4.800000000000001;0.2;7.0;99.9;-20.8;11.000000000000002;55.60865761;12.9927527;49.06146240234375;3.901664733886719;132.60000610351562;1.309999942779541;306.7190082644617;250.4166666666663
188480.0;1.2000000000000002;0.9;3.0;6.800000000000001;-0.4;11.1;46.4;-17.5;2.3;55.60864442;12.99275239;49.5643310546875;3.879547595977783;153.6999969482422;1.350000023841858;308.7177419354832;251.77272727272657
189480.0;3.1;1.3;2.7;8.6;0.4;10.7;-23.2;-3.0;-3.6000000000000005;55.60863417;12.99275559;49.88702392578125;3.901033878326416;151.3000030517578;1.2699999809265137;309.71199999999834;253.14851485148498
190481.0;-1.0;0.4;-0.6000000000000001;5.1000000000000005;0.5;7.5;-15.7;1.5;-4.1;55.60862273;12.99275969;50.06689453125;3.934728622436523;158.1999969482422;1.309999942779541;311.7372881355917;254.32758620689663
191480.0;1.1;-0.7000000000000001;-0.6000000000000001;6.4;0.4;7.6;-15.5;1.4;-0.8;55.60861126;12.99276026;50.53802490234375;3.908760786056519;160.1999969482422;1.1100000143051147;313.7235772357717;255.34677419354807
192480.0;-1.8;0.0;-0.7000000000000001;3.2;1.5;7.9;24.4;9.1;-14.300000000000002;55.60859828;12.99276413;51.13836669921875;3.921322107315064;146.39999389648438;1.2799999713897705;315.7107438016518;256.43478260869506
193480.0;0.7000000000000001;-1.0;0.7000000000000001;2.7;2.1;10.4;13.3;10.0;21.0;55.60858244;12.99276602;51.6566162109375;3.921364784240722;163.5;1.399999976158142;316.69047619047603;257.729166666668
194480.0;1.0;0.5;0.4;6.5;-0.1;9.4;-23.2;-5.2;-3.8;55.60856819;12.99277095;51.75390625;3.8419957160949703;166.8000030517578;1.1799999475479126;318.7142857142878;259.0980392156862
195480.0;-1.4;0.0;-1.8;4.2;0.1;6.300000000000001;-26.1;3.4;-14.2;55.60855864;12.99278123;51.4532470703125;3.9866554737091056;148.6999969482422;1.2300000190734863;320.71199999999834;260.3047619047611
196479.0;0.0;-1.2000000000000002;1.4;5.5;-0.9;9.5;-24.4;-9.6;42.7;55.60854497;12.99278527;51.9681396484375;3.867347955703736;168.5;1.2799999713897705;321.7073170731701;261.5050505050491
197479.0;-0.7000000000000001;-3.4000000000000004;0.5;5.6000000000000005;-1.6;7.6;-6.600000000000001;-7.200000000000001;-31.6;55.60853352;12.992792;51.8065185546875;3.790092468261719;160.39999389648438;1.2400000095367432;323.716666666666;262.6548672566373
198482.0;-1.7000000000000002;-0.1;-2.5;4.1000000000000005;0.4;5.4;78.2;-13.4;36.9;55.60852424;12.99280689;52.7579345703125;3.790092468261719;140.1999969482422;1.2799999713897705;324.70161290322517;263.77358490566064
199496.0;-0.3;0.1;0.2;6.0;0.5;8.3;48.70000000000001;4.4;18.9;55.60852138;12.99282667;51.78515625;3.790092468261719;111.5999984741211;1.3700000047683716;326.7190082644617;265.07547169811323
200481.0;2.2;0.9;1.4;7.9;0.8;9.2;-4.2;-4.800000000000001;-15.7;55.60851835;12.99284375;51.68798828125;3.790092468261719;102.0;1.25;328.7094017094008;266.22988505747094
201481.0;0.4;1.0;-1.7000000000000002;6.0;1.3;6.2;-28.500000000000004;10.6;-22.9;55.60852098;12.9928656;51.455810546875;3.790092468261719;79.80000305175781;1.340000033378601;329.7177419354832;267.6666666666665
202479.0;-0.8;0.9;-3.0;4.9;0.5;5.0;-33.800000000000004;21.1;-22.2;55.60852428;12.99289114;50.694580078125;3.790092468261719;83.0;1.1699999570846558;331.7096774193542;269.07526881720423
203480.0;3.2;2.0;1.3;9.0;1.3;9.4;-43.900000000000006;8.8;58.1;55.60852457;12.992917;50.95538330078125;3.790092468261719;88.19999694824219;1.4199999570846558;333.73109243697695;270.4418604651162
204479.0;-0.3;-5.4;1.2000000000000002;5.4;-3.9;8.9;-90.1;5.8;-14.2;55.60852579;12.99293822;50.20880126953125;3.790092468261719;79.4000015258789;1.440000057220459;335.72222222222206;271.8636363636356
205480.0;-1.0;-4.3;-1.1;4.9;-2.0;6.7;61.6;-10.4;-45.5;55.60852637;12.992958;49.82110595703125;3.790092468261719;90.0;1.2899999618530271;336.71199999999834;273.25000000000045
206479.0;-0.4;-0.8;-0.7000000000000001;5.5;-0.6000000000000001;7.2;162.6;-20.8;40.3;55.60852498;12.99298058;50.197021484375;3.790092468261719;104.6999969482422;1.2999999523162842;338.69047619047603;274.59090909090855
207479.0;1.2000000000000002;1.6;4.0;7.0;-0.6000000000000001;11.9;55.5;-16.3;19.200000000000003;55.60852637;12.99300129;49.95513916015625;3.790092468261719;93.6999969482422;1.2899999618530271;340.7142857142878;276.0506329113923
208479.0;2.7;3.8;5.2;8.4;0.5;12.4;-5.8;2.5;25.300000000000004;55.60852825;12.99302066;49.98211669921875;3.790092468261719;88.80000305175781;1.25;342.43103448275895;277.4719101123595
209479.0;-0.9;1.9;-1.1;4.9;-0.7000000000000001;6.300000000000001;-49.1;25.7;-30.000000000000004;55.60853121;12.99304537;49.57928466796875;3.790092468261719;84.0999984741211;1.350000023841858;343.3770491803259;278.80000000000064
210479.0;1.4;3.1;-1.6;7.1000000000000005;2.4000000000000004;5.6000000000000005;-113.9;32.8;5.7;55.6085309;12.99306903;49.059326171875;3.790092468261719;93.0999984741211;1.3300000429153442;345.7142857142878;280.20454545454527
211479.0;-0.8;-2.9000000000000004;3.5;5.1000000000000005;-2.0;11.1;-100.1;-17.799999999999997;55.7;55.60853209;12.99309089;49.2093505859375;3.790092468261719;82.0999984741211;1.2999999523162842;347.71199999999834;281.58695652173833
212479.0;-0.1;-4.6000000000000005;0.8;4.0;-2.0;9.5;-19.300000000000004;87.40000000000002;-143.70000000000002;55.60853093;12.99311268;48.572021484375;3.790092468261719;93.6999969482422;1.3200000524520874;349.7073170731701;282.91489361702065
213496.0;-0.1;-0.1;-2.0;1.3;3.0;7.4;1.1;-8.4;9.8;55.6085311;12.99313655;48.29254150390625;3.790092468261719;86.5999984741211;1.3700000047683716;350.7478991596661;284.3370786516854
214479.0;-0.4;-1.0;-0.4;1.4;2.5;8.4;6.500000000000001;4.0;34.1;55.60853315;12.99315709;47.4896240234375;3.790092468261719;72.5999984741211;1.190000057220459;352.7190082644617;285.6555555555561
215482.0;0.6000000000000001;3.5;5.1000000000000005;6.5;5.2;12.4;9.2;-6.0;48.400000000000006;55.60853506;12.99318069;47.30364990234375;3.790092468261719;85.30000305175781;1.3799999952316284;353.7073170731701;287.021052631579
216480.0;0.9;2.2;0.5;6.5;-0.6000000000000001;7.800000000000001;-25.200000000000003;6.699999999999999;-6.500000000000001;55.6085321;12.99320409;46.86083984375;3.790092468261719;99.0;1.2599999904632568;355.716666666666;288.3333333333336
217479.0;-0.8;2.8000000000000003;-2.5;4.6000000000000005;0.8;5.4;-43.2;27.0;-3.0;55.60853175;12.99322845;46.97589111328125;3.790092468261719;86.4000015258789;1.409999966621399;357.7235772357717;289.6808510638293
218480.0;2.9000000000000004;-0.1;3.7;8.9;-0.3;11.4;-74.30000000000001;-33.1;97.5;55.60854295;12.99324741;46.30621337890625;3.861129760742188;45.09999847412109;1.440000057220459;359.71199999999834;291.02197802197804
219479.0;-0.3;-6.5;-0.7000000000000001;5.5;-4.0;6.7;-49.50000000000001;-2.7;-18.200000000000003;55.60855039;12.99326883;45.99688720703125;3.859062910079956;50.70000076293945;1.2899999618530271;361.69354838709614;292.3820224719101
220479.0;-2.6;-3.8;-1.0;3.8;-2.3000000000000003;6.6000000000000005;63.6;-12.4;-51.1;55.60855775;12.99328705;45.39208984375;3.961567878723145;48.79999923706055;1.2300000190734863;362.7083333333327;293.8292682926822
221478.0;-0.4;1.3;-0.6000000000000001;5.7;0.3;7.5;128.60000000000002;-48.400000000000006;34.2;55.60856661;12.9933075;44.18731689453125;4.269472122192383;50.29999923706055;1.2300000190734863;364.71199999999834;295.2222222222224
222479.0;1.7000000000000002;2.1;1.4;7.0;-1.1;9.7;79.7;-11.000000000000002;15.000000000000002;55.60857301;12.99332869;43.06964111328125;4.387228965759277;44.70000076293945;1.2699999809265137;366.6959999999984;296.545454545453
223479.0;2.0;1.6;4.5;7.7;-1.1;12.5;-56.7;1.2000000000000002;15.8;55.60857787;12.99335151;42.75732421875;4.268864154815674;67.30000305175781;1.25;367.7083333333327;297.9285714285712
224479.0;-1.2000000000000002;1.4;-1.1;4.4;-0.6000000000000001;6.6000000000000005;-59.5;10.0;-1.0;55.60858165;12.9933727;42.654296875;4.4303975105285645;64.19999694824219;1.2599999904632568;369.71199999999834;299.31250000000057
225479.0;0.3;2.7;0.2;7.4;3.0;7.2;-55.400000000000006;-69.9;-77.80000000000001;55.60858516;12.99339532;42.9769287109375;4.6653547286987305;63.70000076293945;1.2799999713897705;371.70161290322517;300.6170212765953
226479.0;2.0;3.4000000000000004;0.2;-0.6000000000000001;12.4;-0.4;-35.8;-44.3;-3.7000000000000006;55.6085878;12.99341718;43.6759033203125;4.640261173248291;68.30000305175781;1.2400000095367432;373.7107438016518;301.91666666666833
227479.0;-0.6000000000000001;-5.300000000000001;-0.1;-4.1000000000000005;3.0;1.3;-101.1;-45.9;48.400000000000006;55.60858981;12.99343993;42.703125;4.635382652282715;85.69999694824219;1.309999942779541;374.71199999999834;303.2499999999998
228496.0;-0.5;-2.7;-3.5;3.1;0.8;4.3;27.0;-85.1;91.1;55.60859421;12.99346201;41.93658447265625;4.810802936553955;61.70000076293945;1.2699999809265137;376.7177419354832;304.71428571428555
229481.0;0.0;0.5;0.0;6.5;-0.8;8.0;144.10000000000002;-29.1;29.4;55.6085981;12.99348433;41.5191650390625;4.818751811981201;61.900001525878906;1.25;378.7190082644617;306.2247191011236
230482.0;3.3000000000000003;2.4000000000000004;2.5;9.7;-1.1;9.7;108.2;-17.9;6.600000000000001;55.60860277;12.99350199;41.08349609375;4.968777656555176;47.79999923706055;1.2000000476837158;379.7235772357717;307.59340659340717
231478.0;2.9000000000000004;3.9;4.2;8.8;-1.0;10.4;-40.6;18.8;5.9;55.60861004;12.99352117;40.0887451171875;5.136476516723633;44.900001525878906;1.2899999618530271;380.70634920634905;308.97727272727184
232478.0;-0.8;2.0;0.8;5.4;-1.2000000000000002;7.5;-94.8;11.6;30.7;55.60861735;12.99354153;39.3839111328125;5.2047038078308105;57.09999847412109;1.2400000095367432;382.73109243697695;310.3777777777781
233478.0;2.1;-0.3;1.8;9.1;-1.1;8.8;-89.70000000000002;-8.899999999999999;75.00000000000001;55.6086231;12.99356401;38.11688232421875;4.953189849853516;67.9000015258789;1.350000023841858;384.72222222222206;311.6799999999994
234478.0;-0.8;-6.800000000000001;-1.7000000000000002;5.800000000000001;-4.3;5.2;-51.9;13.6;-24.1;55.60862379;12.99358842;37.60382080078125;4.90477466583252;89.0999984741211;1.2999999523162842;386.71199999999834;313.0618556701031
235478.0;-2.2;-4.0;-1.0;4.800000000000001;-2.7;6.1000000000000005;73.30000000000001;-3.6000000000000005;-62.1;55.60862433;12.99360594;37.89312744140625;4.985122680664063;85.5999984741211;1.0199999809265137;387.6959999999984;314.33333333333394
236482.0;-0.5;-1.6;1.0;5.7;-1.7000000000000002;9.0;92.5;42.400000000000006;-53.10000000000001;55.60862404;12.99362474;37.57476806640625;4.939791679382324;88.0999984741211;1.100000023841858;389.7083333333327;315.68181818181756
237486.0;1.2000000000000002;-0.9;-0.3;1.2000000000000002;2.0;9.0;-24.200000000000003;1.7;30.000000000000004;55.6086235;12.99364537;37.82611083984375;5.079843044281006;84.80000305175781;1.2000000476837158;391.71199999999834;317.0240963855422
238478.0;-0.3;0.4;1.8;0.0;3.2;10.8;47.0;-16.4;9.6;55.60862666;12.99366763;38.18408203125;5.167281627655029;69.80000305175781;1.2999999523162842;392.6959999999984;318.4565217391298
239478.0;0.2;0.8;-1.8;0.9;2.9000000000000004;7.7;-0.8;-12.2;-7.400000000000001;55.60862937;12.99369112;38.31268310546875;5.397336006164551;81.0999984741211;1.2400000095367432;394.7094017094008;319.84705882352864
240479.0;0.7000000000000001;0.4;-1.5;1.8;1.9;8.200000000000001;-19.200000000000003;30.6;-20.7;55.60863206;12.99371081;38.87603759765625;6.743999004364014;76.5;1.190000057220459;396.7049180327883;321.16666666666697
241478.0;2.4000000000000004;1.3;7.1000000000000005;5.7;1.9;15.8;-70.0;-65.2;-13.6;55.60862882;12.99373524;39.10400390625;8.185067176818848;100.9000015258789;1.4299999475479126;398.6959999999984;322.4943820224719
242479.0;1.5;-2.5;1.4;7.1000000000000005;-0.9;9.2;-21.8;-13.4;30.8;55.60863123;12.99375658;38.75421142578125;7.031572341918945;86.5;1.2000000476837158;399.7203389830494;323.829787234042
243478.0;-0.5;-0.8;-2.0;5.300000000000001;-0.7000000000000001;6.1000000000000005;107.9;-14.6;6.9;55.60863606;12.99377003;38.58587646484375;6.973763465881348;47.20000076293945;0.8600000143051147;401.7165354330707;325.1649484536083
244478.0;0.8;1.9;2.3000000000000003;6.6000000000000005;-0.4;10.1;60.400000000000006;-16.0;25.200000000000003;55.60864739;12.99378;36.8480224609375;7.280314922332764;31.899999618530277;1.090000033378601;403.7073170731701;326.4526315789481
245482.0;1.3;2.0;4.7;7.2;0.0;12.3;-33.2;-0.4;39.1;55.60865871;12.99379178;36.6185302734375;7.199451446533203;30.200000762939453;1.149999976158142;405.7107438016518;327.74736842105386
246477.0;-0.4;1.4;-2.4000000000000004;4.9;-0.4;5.6000000000000005;-33.2;19.6;-23.6;55.60867103;12.99380379;35.0986328125;7.143758773803711;22.799999237060547;1.2000000476837158;406.7235772357717;329.0833333333335
247477.0;2.6;2.7;0.9;8.4;1.9;8.1;-63.4;3.8;59.7;55.60867931;12.99381678;35.4713134765625;6.836308479309082;34.5;1.1399999856948853;408.71199999999834;330.4000000000003
248478.0;-1.1;-6.2;-0.5;5.0;-4.7;7.1000000000000005;-104.7;27.700000000000003;-37.6;55.60868583;12.9938349;35.93023681640625;6.863537311553955;41.900001525878906;1.2400000095367432;410.69047619047603;331.7777777777784
249477.0;-1.4;-3.4000000000000004;-0.6000000000000001;5.1000000000000005;-1.8;6.9;72.9;-14.300000000000002;-51.50000000000001;55.60869125;12.99385676;36.2266845703125;7.182831764221191;52.29999923706055;1.2400000095367432;411.7118644067782;333.1304347826085
250479.0;0.3;1.1;0.0;6.4;0.0;8.0;130.70000000000002;-46.6;15.3;55.60869327;12.99387079;36.65509033203125;7.063756465911865;49.900001525878906;0.7799999713897705;413.71199999999834;334.46808510638266
251477.0;2.9000000000000004;3.5;1.4;8.6;-0.3;8.9;81.7;-9.1;-11.8;55.60869445;12.99388614;36.60784912109375;6.988279819488525;52.29999923706055;0.9200000166893004;415.69047619047603;335.78723404255265
252477.0;0.2;2.2;0.7000000000000001;6.300000000000001;-0.6000000000000001;7.7;-46.50000000000001;7.1000000000000005;-8.600000000000001;55.60869476;12.99390351;36.58929443359375;7.183767795562744;64.69999694824219;0.949999988079071;416.7142857142878;337.0606060606059
253477.0;-0.4;3.0;-0.2;5.5;0.6000000000000001;7.300000000000001;-46.3;8.2;25.300000000000004;55.6086959;12.99392082;36.32177734375;7.068052291870117;76.0999984741211;0.9300000071525574;418.7096774193542;338.31914893617
254477.0;1.8;-3.3000000000000003;2.4000000000000004;7.7;-2.6;9.5;-77.60000000000001;-50.5;98.1;55.60869655;12.99394159;36.6085205078125;6.491915225982666;80.4000015258789;0.9399999976158142;420.70161290322517;339.63829787234
255477.0;-1.2000000000000002;-7.4;-0.1;5.300000000000001;-4.2;7.5;-20.8;27.5;-118.80000000000004;55.60869816;12.99396353;36.436279296875;6.598110675811768;71.19999694824219;1.0099999904632568;422.7118644067782;340.9782608695639
256477.0;-1.0;-3.2;-0.3;6.0;-2.2;7.0;98.8;-38.50000000000001;-51.8;55.60870083;12.99398313;36.8087158203125;6.451652050018311;74.5999984741211;0.9700000286102296;423.71199999999834;342.2826086956518
257477.0;0.6000000000000001;1.3;1.7000000000000002;7.0;-0.8;9.4;120.4;-40.2;10.4;55.60870053;12.99400158;36.471923828125;5.934720516204834;84.5;0.9200000166893004;425.70161290322517;343.6170212765953
258478.0;3.9;6.5;8.0;9.3;2.1;15.6;56.9;-9.0;55.7;55.60870033;12.99401859;37.1175537109375;6.337180137634277;84.19999694824219;0.9399999976158142;427.7107438016518;344.9263157894752
259481.0;1.6;4.2;0.8;7.4;0.0;7.300000000000001;-61.2;31.7;-7.200000000000001;55.60870367;12.99403798;36.74444580078125;6.141750812530518;73.69999694824219;0.9399999976158142;428.7235772357717;346.23404255319133
260480.0;-0.4;1.9;-0.9;5.9;-0.3;6.4;-122.3;27.4;6.9;55.60871289;12.99405751;34.7081298828125;6.0032830238342285;46.20000076293945;1.1200000047683716;430.71199999999834;347.5652173913036
261479.0;1.3;-3.2;1.1;7.300000000000001;-2.2;8.5;-68.2;-48.10000000000001;102.1;55.60872367;12.99407032;34.297607421875;6.063836097717285;30.700000762939453;0.949999988079071;432.7131147540998;348.85714285714266
262478.0;-1.2000000000000002;-7.0;-1.6;4.5;-3.6;5.7;-3.2;-4.4;-71.30000000000001;55.60873323;12.99408209;33.3790283203125;5.889161586761475;27.799999237060547;0.9300000071525574;434.7235772357717;350.17977528089887
263477.0;-1.1;-1.7000000000000002;-1.6;5.2;-2.0;6.1000000000000005;70.8;-8.4;-49.0;55.6087424;12.99408928;33.1947021484375;5.742100238800049;12.600000381469728;0.9100000262260436;435.71199999999834;351.5208333333343
264478.0;-0.4;0.9;-0.3;6.2;-0.6000000000000001;7.0;81.50000000000001;-12.5;59.3;55.60875032;12.99409723;32.2210693359375;5.673166751861572;22.299999237060547;0.8799999952316284;437.68032786885385;352.8222222222229
265477.0;2.8000000000000003;1.0;4.3;8.700000000000001;-0.5;12.1;-25.0;-9.4;31.9;55.60875636;12.99411086;32.3468017578125;5.8090362548828125;39.59999847412109;0.9100000262260436;439.7142857142878;354.1573033707865
266477.0;-1.6;-1.0;-1.5;4.0;0.5;6.0;-27.5;-16.3;-7.500000000000001;55.60876275;12.99412432;31.8201904296875;5.85493803024292;33.20000076293945;0.9100000262260436;440.70634920634905;355.57142857142844
267477.0;-2.5;0.2;-2.7;3.8;-0.7000000000000001;5.1000000000000005;-11.7;28.500000000000004;-56.8;55.60876893;12.99413941;31.49298095703125;5.777372360229492;41.29999923706055;0.9399999976158142;442.6854838709671;356.9157894736857
268477.0;-1.1;-1.0;0.0;5.4;-1.7000000000000002;7.300000000000001;-35.2;10.7;24.7;55.60877549;12.99415635;30.44091796875;5.496439456939697;44.59999847412109;0.9100000262260436;444.7142857142878;358.20000000000016
269477.0;-0.7000000000000001;-4.1000000000000005;-1.0;5.6000000000000005;-3.5;6.4;4.4;-22.000000000000004;-21.1;55.60878167;12.99417006;30.048828125;5.364965438842773;39.09999847412109;0.8899999856948853;446.71199999999834;359.54736842105353
270481.0;-1.4;-1.2000000000000002;-1.9;5.1000000000000005;-1.6;5.9;60.3;-17.300000000000004;-26.200000000000003;55.60878898;12.99418422;29.74267578125;5.228593349456787;38.59999847412109;0.8899999856948853;447.69047619047603;360.85106382978665
271477.0;1.5;1.5;1.5;7.2;-1.4;9.6;76.2;-25.5;21.200000000000003;55.60879382;12.99419705;28.92022705078125;5.129329204559326;35.20000076293945;0.8399999737739563;449.7203389830494;362.1052631578949
272477.0;0.0;0.4;2.3000000000000003;0.9;3.7;11.8;-17.6;-12.5;10.1;55.60880003;12.99420897;28.611083984375;5.127943992614746;28.700000762939453;0.8600000143051147;450.7096774193542;363.3711340206187
273476.0;-0.7000000000000001;0.4;-4.7;1.7000000000000002;3.6;4.4;26.8;-74.0;-30.5;55.60880921;12.99421659;28.0731201171875;5.092046737670898;6.199999809265137;1.0;452.6991869918693;364.7045454545448
274478.0;0.7000000000000001;1.9;0.8;7.300000000000001;1.1;8.8;12.9;-1.2000000000000002;-39.0;55.60881805;12.99422433;26.7479248046875;5.07667875289917;10.0;0.9100000262260436;454.7107438016518;365.9245283018871
275477.0;1.7000000000000002;-0.6000000000000001;0.5;3.2;3.5;9.3;-45.400000000000006;19.0;-45.8;55.60882622;12.99423623;26.4910888671875;5.045311450958252;24.600000381469727;0.9100000262260436;456.7235772357717;367.18604651162786
276480.0;-2.2;-2.7;1.0;3.3000000000000003;-1.0;10.0;-47.7;-32.5;31.2;55.60883265;12.99425394;26.430419921875;5.049923419952393;45.70000076293945;0.9700000286102296;458.7073170731701;368.5048543689311
277493.0;-0.4;1.5;-0.4;5.9;0.2;7.300000000000001;105.5;-37.3;52.5;55.60883583;12.99427638;26.58599853515625;4.93817138671875;58.70000076293945;0.8600000143051147;459.70399999999836;369.7373737373717
278477.0;2.6;4.0;4.0;8.200000000000001;0.7000000000000001;11.8;37.9;-4.5;39.7;55.60883583;12.99430139;27.6353759765625;4.799903392791748;70.9000015258789;0.8600000143051147;461.7142857142878;371.12962962962933
279477.0;0.8;1.0;-0.9;3.8;4.0;8.1;23.3;39.1;-19.6;55.60883634;12.99432356;27.19384765625;4.768142223358154;58.0;0.8799999952316284;463.71199999999834;372.3370786516854
280493.0;-2.3000000000000003;1.3;-2.1;5.0;0.1;4.3;-26.9;18.8;-27.6;55.6088384;12.99434237;27.76953125;4.972109317779541;61.29999923706055;0.7900000214576721;464.70634920634905;373.7499999999993
281476.0;2.5;-0.9;2.9000000000000004;9.8;-1.6;9.2;-32.400000000000006;-47.1;97.1;55.60883925;12.99436544;28.1165771484375;4.895351886749268;45.59999847412109;0.8100000023841858;466.7142857142878;375.1304347826085
282476.0;-0.5;-7.4;-0.9;6.6000000000000005;-4.9;5.6000000000000005;-55.0;26.6;-43.50000000000001;55.60883752;12.99438741;28.73748779296875;4.926746845245361;78.5999984741211;0.949999988079071;468.71199999999834;376.47311827956946
283476.0;-1.9;-4.0;0.4;5.7;-2.4000000000000004;6.6000000000000005;54.9;-8.700000000000001;-73.30000000000001;55.60883731;12.99440754;28.33807373046875;4.733603477478027;68.80000305175781;0.8100000023841858;469.69047619047603;377.8222222222229
284478.0;-1.8;-1.1;0.0;5.4;-1.8;6.9;123.30000000000004;-22.3;-19.1;55.60883596;12.99442636;28.99078369140625;4.5963053703308105;61.20000076293945;0.800000011920929;472.4237288135612;379.2888888888891
285477.0;2.0;2.2;1.4;8.4;-1.5;8.3;92.1;-18.200000000000003;10.8;55.60883599;12.9944471;29.40521240234375;4.446341514587402;67.69999694824219;0.8399999737739563;473.4126984126981;380.6521739130426
286493.0;3.3000000000000003;3.0;4.800000000000001;9.6;-1.4;10.5;-49.4;3.3000000000000007;26.5;55.60883542;12.99446678;30.04473876953125;4.401607990264893;78.30000305175781;0.9300000071525574;474.7235772357717;382.1111111111112
287478.0;-0.1;2.7;0.0;6.7;0.0;6.300000000000001;-78.10000000000001;6.500000000000001;25.6;55.60883561;12.99448565;29.656005859375;4.51295804977417;68.5;0.8600000143051147;476.7190082644617;383.42857142857133
288478.0;1.8;1.9;1.1;8.5;0.6000000000000001;7.2;-77.00000000000001;12.8;84.5;55.60883052;12.99450728;29.70794677734375;4.380373001098633;96.5;1.0;478.70634920634905;384.77272727272657
289480.0;-1.7000000000000002;-6.2;1.5;5.6000000000000005;-4.6000000000000005;8.700000000000001;-119.8;8.700000000000001;43.70000000000001;55.60883123;12.9945272;30.18096923828125;4.505609512329102;70.69999694824219;1.0;480.7073170731701;386.1975308641977
290477.0;-2.2;-5.7;-1.2000000000000002;5.300000000000001;-3.4000000000000004;5.0;35.0;-12.5;-56.0;55.60883366;12.99454216;31.152587890625;4.382515907287598;53.70000076293945;0.9300000071525574;481.69047619047603;387.69047619047603
291478.0;-1.3;-1.8;-1.4;6.5;-1.7000000000000002;5.1000000000000005;93.5;-41.6;-55.900000000000006;55.60883286;12.99456309;31.18536376953125;4.419820785522461;78.69999694824219;1.0099999904632568;483.7142857142878;389.1363636363635
292492.0;-0.7000000000000001;-0.8;-0.8;1.4;2.9000000000000004;8.3;20.2;8.600000000000001;21.6;55.60883555;12.99458199;31.02410888671875;4.258220195770264;51.09999847412109;1.059999942779541;485.72580645161224;390.5568181818177
293478.0;3.1;3.5;2.6;9.2;-1.0;9.2;65.3;-1.4;20.7;55.6088375;12.99460027;31.6007080078125;4.325021743774414;66.9000015258789;0.9399999976158142;486.69841269841254;392.02173913043475
294476.0;1.7000000000000002;1.0;2.0;7.800000000000001;-2.7;8.4;-55.2;10.3;-12.1;55.60883884;12.9946195;31.4208984375;4.286217212677002;77.9000015258789;0.8899999856948853;488.7142857142878;393.3777777777781
295477.0;0.2;3.1;-0.3;6.7;-0.3;6.1000000000000005;-51.4;8.2;17.0;55.60884453;12.9946383;30.27392578125;4.199841976165772;49.79999923706055;1.1200000047683716;490.70634920634905;394.8292682926822
296476.0;2.0;2.8000000000000003;0.8;8.6;0.8;7.1000000000000005;-108.7;27.1;74.4;55.60884379;12.9946627;31.01641845703125;4.090986728668213;81.0;1.159999966621399;492.6959999999984;396.30952380952374
297475.0;-3.1;-5.800000000000001;1.8;3.8;-5.2;8.700000000000001;-112.5;23.700000000000003;36.9;55.60884632;12.99468392;30.92138671875;4.170217990875244;63.5;1.0700000524520874;494.7083333333327;397.7499999999993
298475.0;-2.7;-5.2;-2.8000000000000003;4.5;-3.5;3.8;12.2;-8.0;-43.2;55.6088467;12.99470687;31.533935546875;4.2447590827941895;76.19999694824219;1.0399999618530271;495.71199999999834;399.1212121212118
299475.0;-0.8;0.4;-1.0;6.300000000000001;-1.0;6.1000000000000005;98.4;-30.9;-2.9;55.60884827;12.99472931;31.6441650390625;4.1389875411987305;75.0;0.9700000286102296;497.69354838709614;400.3333333333326
300475.0;1.3;2.9000000000000004;2.4000000000000004;8.3;-0.2;8.8;46.8;-3.9;0.4;55.60884929;12.99475148;31.698486328125;4.146435260772705;78.5;0.9700000286102296;499.7068965517243;401.47115384615256
301492.0;0.2;1.4;0.1;7.2;-1.0;6.5;10.4;-6.500000000000001;19.4;55.60885072;12.99477449;31.37713623046875;4.16124963760376;63.20000076293945;1.1299999952316284;500.72580645161224;402.65714285714114
302477.0;-1.6;0.2;-3.1;4.7;-1.1;4.5;28.4;5.6;14.6;55.60886024;12.99478741;31.54693603515625;4.1828203201293945;16.299999237060547;1.4600000381469729;502.70161290322517;403.81132075471726
303480.0;3.7;1.4;1.0;10.2;-0.3;8.700000000000001;7.300000000000001;-21.8;88.7;55.60886955;12.99479728;31.4384765625;4.064028739929199;21.700000762939453;1.0399999618530271;504.73109243697695;405.19512195121933
304475.0;-0.5;-6.2;0.9;6.300000000000001;-5.0;7.9;-80.2;6.4;-35.599999999999994;55.60887687;12.99480398;30.60009765625;4.343333721160889;25.200000762939453;0.9300000071525574;506.7177419354832;406.6222222222227
305477.0;-1.9;-3.7;-1.3;5.7;-3.1;5.2;7.0;-17.9;-55.5;55.60888536;12.99480448;30.7962646484375;4.411201477050781;1.899999976158142;0.9800000190734864;507.7096774193542;408.04651162790697
306492.0;-1.2000000000000002;-1.5;-1.7000000000000002;6.300000000000001;-1.6;5.4;87.00000000000001;-36.8;-62.7;55.60889524;12.99480519;31.25225830078125;4.393802165985107;1.7000000476837158;1.0;509.71199999999834;409.4943820224719
307478.0;2.5;1.3;2.1;9.1;-1.7000000000000002;9.3;85.69999999999999;-42.400000000000006;3.7000000000000006;55.6089059;12.99480472;32.0662841796875;4.315320491790772;353.29998779296875;1.0;511.7083333333327;410.90588235294035
308492.0;4.0;1.7000000000000002;5.0;10.2;-2.1;11.8;0.1;-6.600000000000001;23.4;55.6089158;12.99480665;32.69549560546875;4.524769306182861;356.79998779296875;1.0;512.7258064516122;412.3186813186816
309492.0;1.1;2.7;-0.9;7.5;-0.6000000000000001;5.800000000000001;-49.9;32.300000000000004;-17.1;55.60892461;12.99480897;33.218994140625;4.696842670440674;353.5;0.9900000095367432;514.706349206349;413.7045454545448
310476.0;-0.9;2.7;-1.3;6.300000000000001;0.3;5.4;-91.90000000000002;46.4;-5.0;55.60893258;12.99480925;33.55029296875;4.705167770385742;354.1000061035156;1.0399999618530271;516.7142857142878;415.127659574468
311492.0;2.1;-3.2;1.8;9.8;-2.8000000000000003;8.200000000000001;-27.1;-62.8;135.1;55.60893982;12.99481187;33.8583984375;4.685960292816162;354.5;0.9900000095367432;518.7280000000035;416.51764705882306
312482.0;-1.4;-6.1000000000000005;-1.0;5.800000000000001;-4.4;5.1000000000000005;-40.3;17.7;-27.9;55.60894892;12.99481294;34.037109375;4.597154140472412;357.5;0.9900000095367432;520.3809523809521;417.9411764705874
313475.0;-2.3000000000000003;-2.9000000000000004;-1.1;5.1000000000000005;-2.2;5.7;33.6;-7.9;-69.5;55.60895501;12.99481554;35.36553955078125;5.073211669921875;345.20001220703125;1.0099999904632568;521.4285714285757;419.3571428571428
314475.0;-1.6;0.2;0.1;5.7;-1.1;7.0;83.60000000000001;-36.8;-35.0;55.60895929;12.99481819;35.808837890625;5.930618762969971;350.20001220703125;0.9900000095367432;523.706349206349;420.76086956521635
315475.0;2.5;1.0;2.6;9.2;-2.3000000000000003;9.8;72.7;-34.50000000000001;1.6;55.60896038;12.99481689;36.971923828125;6.197229385375977;319.8999938964844;1.059999942779541;524.7073170731701;422.2272727272725
316477.0;3.6;2.0;4.2;10.0;-2.0;11.2;-26.40000000000001;0.2;33.9;55.60896624;12.99481775;37.48736572265625;6.263079643249512;349.3999938964844;1.1299999952316284;526.7190082644667;423.59574468085066
317479.0;-0.7000000000000001;0.3;-3.9;0.1;3.3000000000000003;6.4;-16.8;13.8;-37.3;55.60897465;12.9948154;37.752685546875;6.166135311126709;349.20001220703125;0.9900000095367432;528.7131147540998;425.0439560439561
318492.0;-1.0;-0.4;-3.4000000000000004;0.9;2.0;6.0;0.5;19.200000000000003;-29.0;55.60898713;12.99481382;37.2501220703125;6.492164134979248;3.0;0.9800000190734864;530.7457627118629;426.43529411764666
319491.0;0.7000000000000001;-0.2;0.0;3.5;2.7;9.4;-4.800000000000001;-16.1;23.1;55.60899897;12.99481687;38.81939697265625;6.596517562866211;12.800000190734863;0.9900000095367432;532.731092436977;427.7954545454538
320477.0;1.2000000000000002;-1.8;0.4;4.3;0.7000000000000001;8.9;-30.8;-28.4;-1.1;55.60900762;12.99482299;39.5743408203125;6.619892120361328;8.699999809265137;1.0;533.7142857142878;429.2022471910112
321491.0;-1.6;-3.1;-1.2000000000000002;5.7;-2.7;5.7;72.4;-19.200000000000003;-47.2;55.60901689;12.99482422;39.729248046875;6.779276847839356;356.70001220703125;1.0099999904632568;535.7107438016567;430.6097560975604
322474.0;-1.9;-0.2;-0.4;5.1000000000000005;-1.9;6.800000000000001;102.8;-25.1;-8.8;55.60902524;12.99481399;39.7259521484375;6.921887397766113;319.79998779296875;1.2300000190734863;537.6960000000033;432.07142857142856
323475.0;3.1;1.8;4.1000000000000005;10.2;-2.0;10.4;71.19999999999999;-36.0;5.2;55.60903512;12.99480947;40.47454833984375;7.244865417480469;349.20001220703125;1.1299999952316284;539.7142857142878;433.54117647058774
324479.0;4.2;2.3000000000000003;5.9;11.2;-2.0;12.1;-12.5;-2.4000000000000004;25.300000000000004;55.60904404;12.99480588;41.35711669921875;7.256173610687256;350.20001220703125;0.9900000095367432;540.706349206349;434.85714285714266
325476.0;1.6;1.3;-0.3;8.8;-1.8;7.2;-16.0;4.800000000000001;5.6;55.60905435;12.99480453;41.75506591796875;7.646287441253662;2.0;1.0099999904632568;542.6935483870961;436.5280898876404
326491.0;-1.4;2.3000000000000003;-1.2000000000000002;4.9;-0.4;5.6000000000000005;-12.0;7.8;25.200000000000003;55.609065;12.99480054;42.05657958984375;7.776642322540283;348.0;1.0;544.731092436977;437.9333333333341
327474.0;2.4000000000000004;2.2;0.1;9.3;0.7000000000000001;6.800000000000001;-25.5;-12.0;80.10000000000001;55.60907511;12.99479258;41.72271728515625;7.866097450256348;341.3999938964844;1.0099999904632568;546.7120000000034;439.40909090909054
328474.0;-3.5;-4.800000000000001;0.4;3.8;-4.3;7.2;-103.8;37.8;-16.3;55.60908423;12.99478455;42.97119140625;7.917109966278076;337.8999938964844;1.0199999809265137;548.690476190476;440.878048780487
329475.0;-1.8;-6.4;0.3;5.800000000000001;-4.800000000000001;6.6000000000000005;5.6;-4.7;-75.3;55.60909146;12.99478124;44.7218017578125;7.6709136962890625;349.8999938964844;1.0399999618530271;549.7142857142878;442.37209302325573
330475.0;-2.7;-2.2;-1.7000000000000002;4.800000000000001;-2.3000000000000003;4.9;69.20000000000002;-17.5;-45.1;55.60909498;12.99477853;44.33026123046875;7.87276029586792;345.1000061035156;1.0;551.706349206349;443.8749999999992
331491.0;-1.8;0.8;-1.5;5.4;-0.8;5.6000000000000005;105.3;-37.2;2.9;55.60910159;12.99477716;44.60791015625;7.940428256988525;348.20001220703125;1.0;553.7190082644667;445.4268292682923
332475.0;4.3;2.8000000000000003;2.7;11.3;-0.2;9.3;70.2;-44.7;43.6;55.60910772;12.9947793;45.9288330078125;7.748612880706787;345.29998779296875;1.0700000524520874;554.7131147540998;446.92499999999916
333478.0;4.3;0.6000000000000001;4.3;11.3;-2.5;11.1;-41.7;-15.1;28.0;55.60911655;12.99478016;46.429931640625;7.748737335205078;347.20001220703125;1.0299999713897705;556.7120000000034;448.36585365853625
334475.0;-0.4;1.2000000000000002;-1.8;6.4;-1.1;4.9;-26.200000000000003;18.0;-14.2;55.60912567;12.99478255;47.61871337890625;7.798988342285156;355.29998779296875;1.059999942779541;558.7016129032252;449.8372093023254
335477.0;-2.9000000000000004;1.0;-1.5;4.3;-0.6000000000000001;4.9;-46.50000000000001;3.5;-6.2;55.60913501;12.99479082;48.48394775390625;7.535203456878662;359.3999938964844;1.1200000047683716;560.6960000000033;451.37837837837765
336490.0;1.3;3.1;1.0;8.3;1.7000000000000002;7.9;-79.6;23.3;9.5;55.6091429;12.994795;50.241455078125;7.455418109893799;356.5;1.0199999809265137;562.7249999999993;452.9756097560967
337474.0;-2.1;-4.6000000000000005;1.9;5.800000000000001;-3.6;9.0;-95.60000000000002;11.3;62.1;55.60914984;12.99479708;51.4769287109375;7.13402271270752;347.6000061035156;1.0800000429153442;563.7120000000034;454.4186046511627
338474.0;-1.3;-7.4;1.3;6.300000000000001;-5.5;7.5;-2.5;7.699999999999999;-71.7;55.60916041;12.9948026;52.23956298828125;7.082117557525635;344.8999938964844;1.090000033378601;565.690476190476;455.92499999999916
339475.0;-1.4;-3.2;-0.3;6.6000000000000005;-2.7;5.9;67.00000000000001;-28.700000000000003;-83.5;55.60917357;12.99481084;52.124755859375;7.223447322845459;356.1000061035156;1.090000033378601;567.7142857142878;457.37209302325573
340474.0;-1.4;0.4;0.0;6.0;-1.1;6.800000000000001;126.8;-40.5;3.9;55.60918671;12.99481754;52.129638671875;7.268290042877197;351.79998779296875;1.1399999856948853;569.706349206349;458.7954545454538
341474.0;4.0;2.9000000000000004;1.2000000000000002;10.4;-1.1;8.1;62.50000000000001;-17.200000000000003;-22.1;55.60919925;12.99482258;53.080078125;6.796224594116211;351.6000061035156;1.0800000429153442;570.6960000000033;460.34883720930225
342493.0;4.0;1.9;4.0;10.4;-2.0;10.3;-38.400000000000006;5.500000000000001;-1.3;55.60921204;12.99482651;54.2276611328125;6.715890407562256;350.0;1.090000033378601;572.7249999999993;461.8974358974348
343474.0;-0.6000000000000001;2.1;-0.4;6.0;-1.1;6.0;-72.2;26.1;-15.1;55.60922253;12.99483411;54.94317626953125;6.451429843902588;351.20001220703125;1.0700000524520874;574.7120000000034;463.3777777777781
344490.0;-0.8;3.8;-0.6000000000000001;5.7;0.7000000000000001;6.0;-61.9;39.3;13.6;55.60923457;12.9948432;55.34014892578125;6.2241716384887695;353.79998779296875;1.100000023841858;576.706349206349;464.8139534883719
345490.0;2.7;-1.8;2.7;9.6;-3.2;9.5;-45.0;-43.00000000000001;139.4;55.60924416;12.99484825;56.20166015625;5.910019397735596;347.70001220703125;1.090000033378601;578.731092436977;466.32911392405003
346476.0;4.4;-3.9;1.1;9.0;3.2;6.7;123.9;20.4;-181.2;55.60925286;12.99484583;56.7750244140625;5.899323463439941;343.1000061035156;1.0399999618530271;579.706349206349;467.75555555555616
347475.0;0.4;-0.6000000000000001;2.8000000000000003;-3.7;6.0;-2.6;-3.8;55.5;7.9;55.60926232;12.99484313;58.97113037109375;5.545660972595215;347.5;1.0399999618530271;581.7073170731701;469.2380952380952
348473.0;1.1;-3.4000000000000004;0.9;-3.1;3.7;-3.9;-48.6;25.0;28.1;55.60927224;12.99484678;60.602294921875;5.866788864135742;355.70001220703125;1.059999942779541;583.7131147540998;470.6666666666672
349474.0;1.2000000000000002;1.4;2.8000000000000003;7.7;-0.5;10.2;115.3;-21.200000000000003;-4.6;55.60928372;12.99484958;60.5438232421875;5.587895393371582;357.29998779296875;1.0499999523162842;584.7120000000034;472.1395348837209
350473.0;3.4000000000000004;2.9000000000000004;2.9000000000000004;9.8;0.5;9.9;-20.6;4.800000000000001;24.1;55.6092905;12.99485176;61.29412841796875;6.270056247711182;350.3999938964844;0.8399999737739563;586.7073170731701;473.555555555556
351473.0;0.6000000000000001;2.7;-0.1;6.7;-0.2;6.800000000000001;-6.8;-1.5;33.1;55.60930279;12.99486027;59.60687255859375;5.997678756713867;356.8999938964844;1.2699999809265137;588.7096774193542;475.04819277108436
352474.0;-0.8;3.1;0.0;5.6000000000000005;0.8;7.2;-54.1;39.50000000000001;-17.200000000000003;55.60931868;12.99486468;58.30059814453125;5.983709812164307;353.29998779296875;1.5299999713897705;590.7118644067782;476.46666666666704
353490.0;3.2;-0.9;0.6000000000000001;10.9;-1.7000000000000002;6.7;-13.900000000000002;-87.50000000000001;82.3;55.60933088;12.99486819;59.0146484375;5.95414400100708;351.3999938964844;1.2000000476837158;592.7235772357717;478.04255319148933
354475.0;-0.2;-5.7;1.5;7.6;-5.4;7.6;-4.0;-7.300000000000001;-28.700000000000003;55.60934337;12.99487216;58.538818359375;5.910418510437012;355.5;1.3200000524520874;593.6960000000033;479.3974358974354
355473.0;-2.9000000000000004;-1.9;-0.9;5.800000000000001;-2.4000000000000004;4.2;-4.300000000000001;1.8000000000000005;-88.10000000000001;55.60935662;12.99487266;58.26739501953125;5.763870716094971;351.6000061035156;1.3300000429153442;594.7083333333327;480.94999999999914
356490.0;-1.6;0.0;-1.4;6.6000000000000005;-1.5;4.1000000000000005;96.3;-43.70000000000001;-34.300000000000004;55.60936961;12.99487047;58.19195556640625;5.568048000335693;346.6000061035156;1.3200000524520874;596.7258064516122;482.4318181818178
357476.0;3.3000000000000003;1.3;1.4;10.3;-2.4000000000000004;7.1000000000000005;83.30000000000001;-26.700000000000003;7.200000000000001;55.60937596;12.99486733;58.10809326171875;5.621775627136231;338.3999938964844;1.0499999523162842;598.690476190476;483.8181818181811
358490.0;3.3000000000000003;2.0;3.0;10.3;-1.7000000000000002;8.9;-44.00000000000001;25.7;-0.9000000000000001;55.60938702;12.99486681;57.7467041015625;5.615447998046875;340.3999938964844;1.1299999952316284;599.731092436977;485.24657534246626
359473.0;-2.6;1.0;-1.5;4.800000000000001;-1.5;4.5;-17.7;16.8;-4.0;55.60940258;12.99486713;57.79205322265625;5.636896133422852;345.8999938964844;1.2899999618530271;601.706349206349;486.807228915663
360478.0;-2.2;2.7;-1.4;5.800000000000001;0.2;4.5;-54.9;28.500000000000004;-8.600000000000001;55.60941638;12.99486525;58.15386962890625;5.8447465896606445;346.3999938964844;1.2699999809265137;603.6960000000033;488.31818181818153
361490.0;4.800000000000001;1.0;0.3;12.7;-0.8;6.1000000000000005;13.900000000000002;-57.00000000000001;121.0;55.60942994;12.99486388;58.687744140625;6.154524326324463;342.70001220703125;1.2599999904632568;605.7249999999993;489.80487804877976
362474.0;0.7000000000000001;-5.0;-0.4;8.5;-4.9;5.2;-51.1;8.600000000000001;-3.9;55.60944625;12.99486151;58.753173828125;6.532243251800537;345.5;1.2899999618530271;606.7120000000034;491.27499999999975
363473.0;-2.4000000000000004;-2.4000000000000004;-0.9;6.1000000000000005;-2.8000000000000003;4.4;-2.1;-6.0;-81.10000000000001;55.60945767;12.99485641;59.10552978515625;6.334400177001953;334.6000061035156;1.2699999809265137;608.7016129032252;492.7499999999993
364473.0;-1.4;1.6;-1.2000000000000002;6.6000000000000005;-0.9;4.5;97.1;-35.8;-17.1;55.60946981;12.99485122;59.4180908203125;6.61232328414917;338.8999938964844;1.2400000095367432;610.6935483870961;494.2499999999998
365473.0;3.1;1.7000000000000002;3.2;10.6;-2.1;8.8;77.20000000000002;-43.50000000000001;25.9;55.60948244;12.99484868;59.451416015625;6.675914287567139;341.0;1.2000000476837158;612.7083333333327;495.6590909090903
366474.0;3.2;0.0;3.4000000000000004;10.7;-3.0;9.1;-42.7;11.2;-9.2;55.60949682;12.9948442;59.37689208984375;6.486908912658691;340.3999938964844;1.2300000190734863;613.7120000000034;497.15294117647045
367473.0;-0.4;1.8;-0.3;7.1000000000000005;-1.1;5.2;-29.700000000000006;8.8;13.200000000000005;55.60951044;12.99484424;59.64373779296875;6.658191680908203;354.20001220703125;1.2999999523162842;615.690476190476;498.60465116279056
368472.0;-2.0;2.5;-1.5;6.1000000000000005;-0.4;4.0;-48.70000000000001;40.9;-10.9;55.60951923;12.99484775;58.780029296875;6.445482730865479;352.6000061035156;1.159999966621399;617.7142857142878;500.08888888888896
369473.0;2.0;-2.8000000000000003;1.3;10.2;-4.0;7.2;16.4;-67.10000000000001;149.79999999999998;55.60952825;12.99484744;59.07891845703125;6.36185359954834;340.8999938964844;1.2200000286102295;619.7177419354832;501.4941176470584
370473.0;-0.8;-6.6000000000000005;1.6;7.6;-6.4;7.0;-105.20000000000002;41.0;-74.2;55.6095375;12.99485307;59.51776123046875;6.345499515533447;355.8999938964844;1.2000000476837158;621.690476190476;502.8888888888896
371472.0;-3.2;-2.2;-1.2000000000000002;5.1000000000000005;-2.8000000000000003;4.4;14.800000000000002;-2.2;-51.0;55.60955097;12.99485615;58.938720703125;6.454930782318115;349.3999938964844;1.2300000190734863;622.7043478260915;504.4473684210519
372473.0;-2.4000000000000004;0.4;-1.0;5.7;-1.5;5.0;80.2;-25.200000000000003;-16.3;55.60956583;12.99485706;58.80877685546875;6.504405498504639;341.70001220703125;1.2000000476837158;624.7142857142856;506.04651162790697
373480.0;1.5;1.0;0.7000000000000001;9.6;-2.2;6.300000000000001;42.1;-28.0;-36.400000000000006;55.60957953;12.99485988;59.1710205078125;6.614329814910889;345.6000061035156;1.1699999570846558;626.6935483870961;507.4880952380951
374473.0;6.1000000000000005;3.0;5.4;13.6;-1.3;10.5;27.4;-26.6;47.900000000000006;55.60959302;12.99486216;59.43475341796875;6.508181095123291;346.0;1.1799999475479126;627.7083333333327;508.95238095238074
375473.0;2.4000000000000004;2.2;-0.2;9.8;-1.4;5.1000000000000005;-27.1;14.400000000000002;-8.100000000000001;55.6096101;12.99486317;58.41900634765625;6.435878753662109;350.5;1.2300000190734863;629.7120000000034;510.3695652173908
376472.0;-0.6000000000000001;-0.5;-2.9000000000000004;3.3000000000000003;1.4;6.1000000000000005;30.3;41.900000000000006;-34.60000000000001;55.60962746;12.99486229;58.39459228515625;6.083619117736816;349.3999938964844;1.350000023841858;631.7016129032252;511.7499999999993
377472.0;2.5;0.8;1.5;5.300000000000001;3.5;10.6;13.900000000000002;-23.3;16.0;55.60964118;12.99486214;58.2569580078125;6.391057968139648;351.29998779296875;1.25;633.6890756302541;513.2207792207785
378489.0;0.4;0.6000000000000001;3.9;3.5;3.4000000000000004;12.5;-49.50000000000001;-13.7;-17.7;55.60965675;12.99486844;57.36346435546875;6.454668521881104;354.0;1.1699999570846558;635.7083333333327;514.724137931037
379474.0;0.1;-0.9;-1.9;2.9000000000000004;2.6;6.7;-12.4;16.200000000000003;-9.8;55.60967207;12.99487003;58.562255859375;6.477993965148926;347.29998779296875;1.2300000190734863;636.6999999999994;516.1162790697674
380475.0;-0.8;-0.5;-2.7;7.300000000000001;-0.9;3.0;95.60000000000002;-25.200000000000003;-10.1;55.60968544;12.99486985;58.4952392578125;6.767465114593506;348.5;1.2599999904632568;638.6960000000033;517.533333333331
381472.0;-0.1;1.3;0.2;7.7;-1.0;5.9;62.3;-5.4;-7.9;55.6097;12.99487079;59.208984375;6.950396060943604;355.8999938964844;1.2799999713897705;640.716666666666;519.0232558139535
382472.0;4.1000000000000005;4.0;5.1000000000000005;11.5;0.7000000000000001;9.8;20.5;5.7;28.4;55.60971375;12.99487162;59.44976806640625;7.370253086090088;354.6000061035156;1.2699999809265137;642.7120000000034;520.4210526315774
383472.0;1.6;2.5;-0.4;9.1;-0.3;5.1000000000000005;-8.3;-9.5;17.0;55.60972627;12.99487736;58.651611328125;7.280531883239746;4.400000095367432;1.2200000286102295;643.690476190476;521.8292682926822
384474.0;-1.9;1.3;-2.0;5.800000000000001;-0.4;3.9;-32.5;16.1;-7.500000000000001;55.60974009;12.99487644;59.01702880859375;7.098580837249756;342.1000061035156;1.340000033378601;645.7118644067782;523.2291666666658
385474.0;2.5;-0.1;1.2000000000000002;10.5;-1.2000000000000002;7.0;5.300000000000001;-24.4;76.0;55.60975231;12.99486885;58.82275390625;7.156088829040527;334.5;1.2699999809265137;647.7120000000034;524.5434782608688
386472.0;1.4;-3.8;0.2;8.1;-3.4000000000000004;7.1000000000000005;-82.2;19.4;-15.1;55.60976568;12.99486843;59.1082763671875;6.677068710327148;347.79998779296875;1.2599999904632568;649.6960000000033;526.0941176470587
387472.0;-1.9;-2.3000000000000003;-1.0;6.2;-1.9;4.7;14.400000000000002;-14.400000000000002;-30.000000000000004;55.60977754;12.99486761;60.5640869140625;6.215245723724365;336.29998779296875;1.2200000286102295;650.7142857142878;527.5111111111089
388488.0;-2.6;-1.1;-1.7000000000000002;5.7;-1.6;4.1000000000000005;53.7;0.2;-35.599999999999994;55.60978589;12.99487067;60.77362060546875;5.82357931137085;351.3999938964844;1.1299999952316284;653.4444444444441;528.9761904761949
389488.0;0.7000000000000001;0.8;1.6;7.800000000000001;-0.9;7.800000000000001;65.4;-1.6;39.0;55.609797;12.9948721;61.4300537109375;5.900154113769531;347.3999938964844;1.2200000286102295;654.4239999999967;530.382022471912
390473.0;1.7000000000000002;0.6000000000000001;5.2;7.4;-2.1;13.0;-42.7;-10.4;40.3;55.60980735;12.99487344;61.7142333984375;5.793342590332031;347.8999938964844;1.1799999475479126;655.7083333333327;531.8048780487798
391474.0;0.6000000000000001;1.2000000000000002;0.1;7.2;-1.1;6.800000000000001;-22.9;33.6;-3.1;55.60982143;12.99488023;61.138671875;5.838850975036621;2.5999999046325684;1.2100000381469729;657.7120000000034;533.2857142857156
392472.0;-1.5;2.3000000000000003;-2.4000000000000004;5.4;0.2;4.3;-28.1;10.7;-8.700000000000001;55.60983527;12.99488015;62.03021240234375;6.165328025817871;354.6000061035156;1.2400000095367432;659.7016129032252;534.8205128205154
393474.0;2.9000000000000004;0.5;1.3;10.3;-1.5;8.0;8.700000000000001;-36.2;64.50000000000001;55.60984746;12.99488522;61.01953125;6.370553970336914;355.1000061035156;1.190000057220459;661.6960000000033;536.3095238095252
394471.0;-0.5;-4.7;0.5;6.7;-4.6000000000000005;7.300000000000001;-64.9;2.3;-17.200000000000003;55.60985973;12.9948876;60.68780517578125;6.378665447235107;351.1000061035156;1.2200000286102295;663.7083333333327;537.7499999999993
395472.0;-2.5;-3.3000000000000003;-2.2;4.800000000000001;-2.7;4.7;33.0;-0.5;-63.4;55.60987281;12.99489106;60.1962890625;6.282561302185059;353.79998779296875;1.2300000190734863;664.7120000000034;539.2142857142867
396488.0;-1.2000000000000002;0.1;-1.5;6.1000000000000005;-1.4;5.5;92.2;-26.000000000000004;-25.9;55.60988457;12.99489181;60.36529541015625;5.959279537200928;352.20001220703125;1.2000000476837158;666.7040000000034;540.63440860215
397472.0;1.9;1.7000000000000002;2.5;8.8;-1.6;9.2;45.7;-29.800000000000004;15.7;55.60989631;12.99489454;59.57666015625;5.570963382720947;353.29998779296875;1.1399999856948853;668.7142857142878;542.1123595505624
398471.0;3.1;0.3;1.4;9.6;-3.0;8.1;-31.2;-2.5;0.0;55.60990985;12.99489269;59.426025390625;5.46431827545166;345.0;1.2300000190734863;669.7120000000034;543.4782608695646
399472.0;-0.1;1.5;-1.8;6.4;-1.2000000000000002;5.0;-21.4;9.5;5.4;55.60992062;12.99488735;59.21612548828125;5.672715187072754;343.8999938964844;1.2100000381469729;671.690476190476;544.9268292682918
400471.0;-0.8;-0.7000000000000001;-2.5;2.2;1.2000000000000002;7.1000000000000005;5.0;30.5;-38.400000000000006;55.60993278;12.99488688;59.416259765625;5.83115816116333;356.20001220703125;1.25;673.7094017094008;546.3750000000014
401473.0;-0.8;-0.6000000000000001;1.2000000000000002;0.6000000000000001;0.7000000000000001;11.4;7.300000000000001;-0.4;22.2;55.60994223;12.9948944;59.922119140625;5.614921569824219;356.3999938964844;1.1699999570846558;675.7016129032252;547.8372093023254
402472.0;1.9;-0.5;2.7;4.2;0.9;11.5;-32.9;-7.500000000000001;-26.000000000000004;55.60995129;12.99489959;60.3990478515625;5.591821670532227;353.29998779296875;1.1799999475479126;677.6935483870961;549.2906976744185
403472.0;0.3;-0.4;-1.1;5.6000000000000005;0.1;6.800000000000001;1.7;-74.60000000000001;90.3;55.60996471;12.99490573;59.890625;5.7184367179870605;1.7000000476837158;1.2300000190734863;678.6956521739176;550.6867469879521
404488.0;-1.3;0.7000000000000001;-1.8;6.1000000000000005;-0.2;5.300000000000001;73.9;-14.300000000000002;20.3;55.60997318;12.99490714;60.4208984375;5.390499114990234;349.5;1.090000033378601;680.7295081967228;552.1290322580644
405472.0;2.5;0.7000000000000001;4.1000000000000005;9.5;-2.3000000000000003;10.6;42.2;-31.4;7.500000000000001;55.60998253;12.99490565;61.2391357421875;5.380337238311768;348.1000061035156;1.1200000047683716;682.6960000000033;553.4761904761926
406479.0;3.4000000000000004;1.3;3.1;10.7;-2.4000000000000004;9.3;-28.700000000000003;-0.9000000000000001;14.800000000000002;55.60999172;12.9949065;61.2977294921875;5.402641296386719;348.8999938964844;1.190000057220459;684.6935483870961;555.0229885057472
407473.0;-0.7000000000000001;1.8;-1.1;6.4;-0.8;5.2;-24.5;9.0;0.8;55.61000151;12.99490694;62.5906982421875;5.430102348327637;347.3999938964844;1.159999966621399;685.7024793388467;556.4750000000017
408488.0;-1.6;1.4;-1.9;5.9;-0.7000000000000001;4.5;-33.0;23.90000000000001;-3.1;55.61001371;12.99490549;62.258544921875;5.278250217437744;347.6000061035156;1.159999966621399;687.7258064516122;558.046511627907
409488.0;2.0;-1.3;0.5;9.5;-2.1;6.5;-2.2;-42.7;78.3;55.61002402;12.9949057;62.39080810546875;5.318113803863525;351.6000061035156;1.0299999713897705;689.7120000000034;559.5060240963858
410472.0;-0.9;-4.2;0.7000000000000001;6.800000000000001;-3.6;6.9;-49.50000000000001;0.8;-41.2;55.6100382;12.99490193;61.369873046875;5.188061237335205;351.6000061035156;1.159999966621399;690.7083333333327;560.888888888885
411488.0;-2.4000000000000004;-2.3000000000000003;-1.2000000000000002;5.4;-2.1;5.0;38.7;-9.0;-38.0;55.61005264;12.99489893;61.2349853515625;5.291103363037109;349.0;1.25;692.7258064516122;562.4651162790697
412471.0;-0.7000000000000001;0.9;-0.4;6.800000000000001;-0.6000000000000001;6.4;127.1;-42.900000000000006;17.9;55.61006996;12.99489506;60.20355224609375;5.551454067230225;349.0;1.2000000476837158;694.690476190476;563.8636363636356
413473.0;2.4000000000000004;1.2000000000000002;2.2;9.8;-1.5;8.6;58.7;-34.0;-1.5;55.61008476;12.99489455;60.6158447265625;5.507455348968506;355.0;1.1799999475479126;696.7142857142878;565.3440860215051
414471.0;3.6;0.2;3.0;10.3;-3.3000000000000003;9.7;-42.0;-10.3;28.500000000000004;55.61010131;12.994898;59.78973388671875;5.72959041595459;5.400000095367432;1.2300000190734863;697.706349206349;566.7948717948743
415478.0;0.1;1.9;-1.3;7.1000000000000005;-0.3;5.6000000000000005;-24.8;14.800000000000002;-8.5;55.61011598;12.99489294;60.0400390625;5.897951602935791;345.8999938964844;1.2799999713897705;699.6960000000033;568.2222222222213
416487.0;-1.7000000000000002;2.4000000000000004;-2.4000000000000004;5.4;0.2;4.4;-14.2;12.0;-6.0;55.61013374;12.99489151;59.6895751953125;5.53759765625;355.3999938964844;1.3300000429153442;701.7249999999993;569.6666666666697
417487.0;2.7;-1.7000000000000002;1.9;9.6;-3.5;8.200000000000001;-10.5;-53.0;118.3;55.61014492;12.99489511;60.1658935546875;6.275034427642822;3.400000095367432;1.2000000476837158;703.7280000000035;571.1666666666674
418471.0;-0.2;-5.0;0.8;7.0;-3.8;7.6;-15.9;3.6000000000000005;-43.00000000000001;55.61016004;12.99490014;59.83465576171875;6.216643810272217;358.79998779296875;1.2300000190734863;704.6960000000033;572.5604395604372
419476.0;-2.8000000000000003;-2.9000000000000004;-1.9;4.7;-2.4000000000000004;4.7;52.7;-9.5;-58.1;55.61017383;12.99489995;60.07550048828125;6.268213272094727;347.6000061035156;1.2100000381469729;706.7058823529433;573.8924731182788
420470.0;-0.7000000000000001;0.4;1.7000000000000002;6.5;-1.6;8.700000000000001;54.4;4.4;-34.400000000000006;55.61018474;12.9949002;60.23162841796875;6.096873283386231;350.8999938964844;1.1200000047683716;708.7120000000034;575.4130434782603
421473.0;2.1;2.3000000000000003;4.4;9.1;-0.7000000000000001;11.0;8.0;-6.0;12.3;55.61019633;12.99489948;60.23956298828125;6.1015448570251465;348.0;1.2000000476837158;710.6967213114768;576.8500000000031
422478.0;1.7000000000000002;0.5;0.1;8.5;-2.0;6.7;-35.3;0.7;6.2;55.61021089;12.99488767;60.43524169921875;6.264707088470459;344.8999938964844;1.2599999904632568;711.6960000000033;578.3111111111098
423473.0;-1.8;2.1;-2.3000000000000003;5.300000000000001;-0.4;4.2;-33.2;26.8;-9.9;55.61022607;12.99487216;60.580810546875;6.321396350860596;353.70001220703125;1.2100000381469729;713.6967213114768;579.7560975609749
424475.0;3.5;-0.7000000000000001;1.0;10.9;-2.4000000000000004;7.2;-14.300000000000002;-57.00000000000001;123.8;55.61024114;12.99485454;61.1712646484375;6.056277275085449;345.20001220703125;1.2999999523162842;716.4146341463402;581.1111111111106
425472.0;-0.5;-6.0;0.5;7.1000000000000005;-5.5;6.9;-76.5;24.1;-56.10000000000001;55.61025579;12.99483886;61.64312744140625;5.994248390197754;352.0;1.3700000047683716;717.3919999999968;582.4835164835144
426493.0;-2.8000000000000003;-2.8000000000000003;-2.3000000000000003;4.5;-2.9000000000000004;4.4;27.5;-1.6;-45.9;55.61026865;12.99482671;61.73126220703125;6.037457466125488;345.3999938964844;1.2899999618530271;718.7249999999993;583.8863636363628
427471.0;-0.9;1.5;-0.3;6.6000000000000005;-0.7000000000000001;5.800000000000001;110.3;-39.1;7.200000000000001;55.61028069;12.99481902;62.7099609375;5.8975605964660645;351.0;1.149999976158142;721.4193548387084;585.3296703296689
428487.0;3.4000000000000004;2.5;1.5;10.5;-1.0;7.9;51.8;-18.9;-11.3;55.61029341;12.99480819;63.24188232421875;5.886674404144287;347.6000061035156;1.2599999904632568;722.3983739837386;586.720930232558
429487.0;2.1;0.6000000000000001;2.2;8.6;-3.0;8.200000000000001;-24.8;1.8000000000000005;8.3;55.61030599;12.99479656;63.6875;5.913106918334961;347.8999938964844;1.2400000095367432;723.731092436977;588.1521739130433
430471.0;-1.0;2.1;-2.3000000000000003;5.6000000000000005;-0.8;4.3;-18.3;20.6;-5.500000000000001;55.61031794;12.99478571;64.02752685546875;5.911727428436279;346.79998779296875;1.25;725.7120000000034;589.4888888888868
431487.0;3.5;2.9000000000000004;1.7000000000000002;10.9;0.5;8.0;-36.6;-9.3;86.3;55.61032787;12.99477753;64.16790771484375;5.917752742767334;343.29998779296875;1.2400000095367432;727.706349206349;590.9302325581393
432473.0;-1.3;-5.9;0.1;6.300000000000001;-5.7;6.300000000000001;-104.2;11.1;-12.3;55.61033638;12.99477708;65.759765625;5.908830642700195;1.5;1.1200000047683716;729.7142857142878;592.3595505617996
433487.0;-1.6;-3.5;-1.8;6.300000000000001;-2.9000000000000004;4.2;36.8;-13.900000000000002;-58.8;55.61034603;12.99477606;65.36614990234375;5.61746072769165;348.5;1.2300000190734863;730.7222222222221;593.8292682926822
434487.0;-1.3;0.8;-0.6000000000000001;6.4;-1.3;5.6000000000000005;94.4;-37.9;-3.2;55.6103566;12.99477297;65.65081787109375;5.620476245880127;355.20001220703125;1.2000000476837158;732.7235772357717;595.204081632653
435470.0;1.9;2.6;2.6;9.5;-0.7000000000000001;8.3;26.8;-6.600000000000001;2.5;55.61036654;12.99477241;65.76861572265625;5.608567237854004;358.29998779296875;1.2000000476837158;734.6910569105685;596.4444444444457
436470.0;2.3000000000000003;-0.1;0.9;9.3;-2.9000000000000004;7.2;-38.1;7.9;-19.200000000000003;55.61037685;12.99476893;66.0892333984375;5.522923946380615;347.29998779296875;1.1699999570846558;735.6942148760368;597.7362637362606
437487.0;0.1;1.4;-1.8;7.2;-1.0;4.5;-23.2;-3.7000000000000006;-15.8;55.61038821;12.99477028;66.14459228515625;5.52212381362915;356.5;1.190000057220459;737.7235772357717;599.1395348837209
438470.0;2.5;2.3000000000000003;0.1;10.3;-0.1;6.4;-5.300000000000001;-4.300000000000001;33.1;55.61039905;12.99476891;66.43963623046875;5.383919715881348;338.8999938964844;1.159999966621399;739.7016129032252;600.6486486486501
439477.0;-1.2000000000000002;-4.0;1.5;6.1000000000000005;-4.0;8.3;-98.7;21.500000000000004;-18.4;55.61040794;12.99477095;66.20758056640625;5.272819519042969;353.20001220703125;1.1799999475479126;741.7142857142878;602.1627906976744
440486.0;-2.3000000000000003;-1.8;-1.6;5.4;-1.9;4.5;1.4;-1.5;-19.700000000000003;55.61041803;12.99477337;66.772216796875;5.184311866760254;347.0;1.149999976158142;742.7235772357717;603.5604395604372
441486.0;-1.0;1.5;-0.3;7.0;-0.3;5.9;86.5;-33.50000000000001;32.2;55.61043337;12.99477759;65.507568359375;5.140352725982666;347.29998779296875;1.1100000143051147;744.706349206349;604.9130434782596
442486.0;1.0;1.3;3.3000000000000003;8.5;-1.4;9.5;50.7;-32.5;48.10000000000001;55.61044664;12.99478393;65.34259033203125;5.188619136810303;0.4000000059604645;1.2100000381469729;746.731092436977;606.3296703296689
443471.0;2.8000000000000003;0.1;3.0;10.9;-2.6;9.0;-37.8;-6.9;15.3;55.61045931;12.99478935;65.5946044921875;5.232631683349609;3.5999999046325684;1.190000057220459;747.706349206349;607.714285714289
444486.0;0.2;2.6;-0.2;7.4;-0.4;5.800000000000001;-9.9;6.1000000000000005;12.7;55.61047126;12.99479375;65.571533203125;5.488214492797852;3.700000047683716;1.190000057220459;749.7120000000034;609.1627906976744
445486.0;-1.6;1.5;-1.6;6.5;-0.3;4.4;-51.9;37.0;-6.699999999999999;55.61048248;12.99479255;66.3248291015625;5.586243152618408;345.1000061035156;1.2599999904632568;751.7249999999993;610.6341463414628
446486.0;0.9;-0.9;1.3;9.1;-2.2;7.0;9.5;-4.300000000000001;49.7;55.61049396;12.99479164;66.8779296875;5.7711710929870605;347.79998779296875;1.2100000381469729;753.7280000000035;612.0645161290322
447486.0;1.8;-2.0;0.9;7.6;-0.9;9.1;0.7;74.2;-53.2;55.61050424;12.99479805;66.18798828125;6.193920612335205;7.900000095367432;1.2699999809265137;754.7131147540998;613.3578947368408
448486.0;0.0;-0.6000000000000001;-3.4000000000000004;3.1;2.1;5.5;0.0;-3.3000000000000007;-15.5;55.61051834;12.99479528;66.9437255859375;6.486488342285156;343.3999938964844;1.350000023841858;756.691666666666;614.7250000000026
449486.0;0.0;1.1;0.0;7.5;-1.7000000000000002;6.800000000000001;31.8;32.7;-66.9;55.61053376;12.99479313;66.0965576171875;6.514577865600586;344.79998779296875;1.2200000286102295;758.7190082644667;616.1573033707873
450473.0;3.8;1.6;4.7;10.6;-2.0;11.1;-13.3;-14.2;27.1;55.61054636;12.99479555;66.4539794921875;6.256555557250977;4.900000095367432;1.2300000190734863;759.690476190476;617.5476190476215
451470.0;0.2;1.1;-0.2;7.300000000000001;-1.3;5.7;-31.5;5.1000000000000005;-6.4;55.61055743;12.99479516;66.183837890625;6.329282283782959;355.70001220703125;1.2000000476837158;761.6885245901653;619.1136363636363
452486.0;-1.4;1.7000000000000002;-1.3;5.800000000000001;-1.4;4.5;-46.8;10.5;14.1;55.61056837;12.99479557;66.84954833984375;6.249565124511719;0.2000000029802322;1.159999966621399;763.7190082644667;620.5581395348836
453486.0;3.3000000000000003;1.3;0.1;11.4;-0.4;5.800000000000001;-60.900000000000006;-0.9000000000000001;79.00000000000001;55.61057954;12.99479551;67.4072265625;6.145997047424316;355.5;1.2400000095367432;765.7177419354832;621.9555555555514
454469.0;-0.6000000000000001;-6.5;0.8;7.5;-5.5;6.5;-103.6;18.0;-0.6000000000000001;55.61059105;12.99479617;67.630126953125;6.029388904571533;357.79998779296875;1.2699999809265137;767.6960000000033;623.4175824175807
455469.0;-2.1;-5.9;-1.8;5.9;-4.6000000000000005;4.1000000000000005;12.8;-3.4;-71.30000000000001;55.61060247;12.99479727;68.0631103515625;5.85008430480957;354.8999938964844;1.2200000286102295;768.7083333333327;624.7954545454538
456486.0;-0.7000000000000001;-0.9;-2.4000000000000004;7.300000000000001;-1.7000000000000002;3.9;98.0;-32.0;-38.0;55.61061655;12.99479989;67.84625244140625;5.359413623809815;355.6000061035156;1.1200000047683716;770.7280000000035;626.2888888888876
457486.0;0.0;1.4;1.5;7.6;-1.6;7.800000000000001;94.2;-20.4;9.7;55.61062806;12.99480012;67.55078125;5.547113418579102;351.1000061035156;1.159999966621399;772.706349206349;627.6521739130426
458474.0;3.2;2.9000000000000004;4.7;10.2;-0.9;10.6;6.699999999999999;2.3;27.0;55.61064318;12.99480309;66.23077392578125;5.33449125289917;356.3999938964844;1.1799999475479126;773.7142857142878;629.0476190476193
459490.0;0.9;0.8;0.4;8.200000000000001;-3.0;6.800000000000001;-43.900000000000006;16.200000000000003;-7.9;55.61065736;12.99480348;66.17657470703125;5.340090274810791;356.79998779296875;1.2799999713897705;775.7280000000035;630.4999999999993
460470.0;-2.0;1.6;-1.1;5.4;-1.0;4.9;-41.4;16.8;0.4;55.61067051;12.99480291;66.30224609375;5.240699291229248;351.20001220703125;1.2300000190734863;777.6880000000033;631.8064516129025
461486.0;2.5;-0.6000000000000001;-0.1;10.3;-2.5;5.9;2.0;-28.500000000000004;97.0;55.61068392;12.9948033;66.399169921875;5.231906414031982;355.8999938964844;1.2799999713897705;779.731092436977;633.2222222222213
462485.0;-1.3;-6.2;-0.5;6.5;-5.4;5.300000000000001;-49.0;10.5;-21.500000000000004;55.61069569;12.99480259;66.187744140625;5.234843254089356;349.79998779296875;1.2400000095367432;781.7280000000035;634.5684210526294
463485.0;-2.2;-2.5;-0.3;6.0;-2.5;5.4;51.2;-18.700000000000003;-57.3;55.61070759;12.99479991;65.6683349609375;5.237327575683594;346.3999938964844;1.2100000381469729;782.7142857142856;636.0217391304348
464469.0;-0.6000000000000001;0.4;0.3;7.2;-1.9;6.300000000000001;107.9;-36.2;-22.4;55.61071775;12.99480155;65.62139892578125;5.071288108825684;353.8999938964844;1.1699999570846558;784.6910569105685;637.355555555554
465474.0;2.5;1.7000000000000002;1.7000000000000002;9.6;-2.5;7.7;43.70000000000001;-1.8000000000000005;-30.4;55.610729;12.99480327;65.972412109375;5.038475036621094;350.29998779296875;1.2100000381469729;786.6967213114768;638.7674418604649
466469.0;2.5;0.8;1.6;9.1;-3.5;7.4;-32.8;13.7;5.0;55.6107412;12.99480503;66.3214111328125;4.90188455581665;356.5;1.309999942779541;787.7073170731701;640.1489361702127
467471.0;-1.4;1.9;-1.0;5.9;-1.3;4.9;-36.2;21.1;-24.3;55.61075115;12.99480571;66.4710693359375;4.818996429443359;351.8999938964844;1.1399999856948853;789.6960000000033;641.4888888888868
468469.0;4.6000000000000005;1.0;0.3;12.4;-0.2;6.0;-6.1000000000000005;-42.8;108.5;55.61076244;12.99480551;66.71441650390625;4.753815174102783;350.29998779296875;1.2400000095367432;791.7049180327883;643.0612244897959
469469.0;-1.6;-5.7;-0.1;6.5;-5.300000000000001;5.6000000000000005;-102.6;18.6;-18.5;55.61077269;12.99480717;66.795654296875;4.921064376831055;355.6000061035156;1.2100000381469729;793.7073170731701;644.3368421052619
470476.0;-3.3000000000000003;-3.5;-1.7000000000000002;4.5;-3.0;4.6000000000000005;18.0;-1.2000000000000002;-40.3;55.61078226;12.99481058;65.50750732421875;4.890538215637207;353.20001220703125;1.1799999475479126;794.690476190476;645.6666666666638
471470.0;-1.1;0.6000000000000001;0.5;6.800000000000001;-1.5;6.9;102.4;-41.4;-14.400000000000002;55.61079238;12.9948156;65.1192626953125;4.621195316314697;352.3999938964844;1.190000057220459;796.7142857142878;647.1333333333328
472486.0;3.0;1.1;0.9;9.9;-2.8000000000000003;7.5;32.5;-12.2;-52.7;55.61080173;12.99482104;65.13885498046875;4.589402198791504;4.300000190734863;1.2000000476837158;798.7280000000035;648.551724137933
473485.0;2.4000000000000004;0.2;1.8;9.0;-3.7;7.9;-28.1;-1.3;22.9;55.61081156;12.99482485;64.6688232421875;4.450302600860596;1.399999976158142;1.1100000143051147;799.7040000000034;649.9325842696676
474469.0;-0.3;2.7;-1.7000000000000002;6.6000000000000005;-1.0;4.4;-14.300000000000002;16.5;7.0;55.61082264;12.99482651;64.9912109375;4.273466110229492;351.70001220703125;1.2100000381469729;801.7142857142878;651.3720930232557
475485.0;0.0;2.0;-1.8;6.9;-0.4;4.1000000000000005;-56.9;30.9;20.4;55.61083294;12.99482818;65.20086669921875;4.191628932952881;358.8999938964844;1.2899999618530271;803.7222222222221;652.8181818181811
476485.0;-3.4000000000000004;-4.3;1.5;4.3;-4.4;7.800000000000001;-92.7;11.5;58.1;55.61084377;12.99482922;65.58734130859375;4.01499080657959;350.5;1.2100000381469729;805.7120000000034;654.1666666666674
477486.0;-2.6;-7.300000000000001;-0.5;5.5;-5.7;5.1000000000000005;-13.900000000000002;10.7;-92.4;55.61085464;12.99482966;66.0206298828125;3.927593469619751;346.1000061035156;1.2400000095367432;806.6991869918693;655.6341463414628
478486.0;-0.7000000000000001;-1.0;-0.9;7.6;-1.9;4.9;83.10000000000001;-44.6;-62.50000000000001;55.61086553;12.99483304;65.7384033203125;3.8011417388916016;347.20001220703125;1.2300000190734863;808.7190082644667;657.1555555555549
479474.0;-0.6000000000000001;0.5;1.7000000000000002;6.9;-2.4000000000000004;7.9;106.8;-28.0;9.9;55.61087599;12.99483695;65.89990234375;3.790092468261719;348.8999938964844;1.2000000476837158;810.7016129032252;658.4893617021273
480468.0;3.8;3.3000000000000003;3.7;10.8;-1.6;9.7;11.8;-4.9;41.4;55.61088784;12.99484174;66.4080810546875;3.790092468261719;0.699999988079071;1.2200000286102295;812.6880000000033;659.9500000000035
481485.0;1.4;1.2000000000000002;0.7000000000000001;8.4;-2.9000000000000004;6.1000000000000005;-53.50000000000001;11.900000000000002;1.4;55.61089842;12.9948451;66.23565673828125;3.8057942390441895;354.5;1.2100000381469729;813.7190082644667;661.363636363636
482468.0;-1.9;2.2;0.7000000000000001;5.7;-1.1;6.2;-53.0;0.1;21.7;55.61091484;12.99483656;65.6793212890625;3.952048540115357;346.79998779296875;1.2400000095367432;815.7016129032252;662.7333333333302
483468.0;4.5;-0.6000000000000001;1.1;12.0;-2.6;7.1000000000000005;8.0;-71.9;134.8;55.61093508;12.99481998;65.1319580078125;4.277271747589111;347.3999938964844;1.2100000381469729;817.6960000000033;664.1219512195121
484485.0;-0.4;-6.6000000000000005;-0.7000000000000001;7.300000000000001;-6.0;5.5;-64.50000000000001;7.0;-36.400000000000006;55.61095306;12.99480575;66.1025390625;4.4299492835998535;358.29998779296875;1.25;819.731092436977;665.5934065934041
485468.0;-1.8;-2.9000000000000004;-0.7000000000000001;6.300000000000001;-2.3000000000000003;5.4;40.3;-19.1;-59.3;55.61097022;12.99478642;66.424560546875;4.836978912353516;355.70001220703125;1.309999942779541;820.6967213114768;666.9302325581393
486486.0;-0.4;-0.3;-1.0;2.2;2.5;8.3;9.2;7.400000000000001;9.9;55.61098521;12.99477252;66.446533203125;5.172206878662109;359.1000061035156;1.2200000286102295;822.716666666666;668.2708333333323
487471.0;0.2;0.0;4.5;3.8;2.9000000000000004;13.5;17.799999999999997;-6.0;26.5;55.61099929;12.99475695;65.9632568359375;5.502769470214844;347.5;1.25;824.7118644067782;669.5568181818177
488485.0;1.9;-0.2;1.2000000000000002;9.2;-3.6;7.7;-20.9;1.4;8.8;55.61101308;12.99475609;65.52740478515625;5.497045993804932;11.399999618530272;1.3200000524520874;825.7200000000034;670.934065934062
489485.0;-1.3;1.4;-1.7000000000000002;6.1000000000000005;-0.5;4.5;-16.8;8.600000000000001;2.3;55.61102553;12.99475135;65.6370849609375;5.256041526794434;359.20001220703125;1.2300000190734863;827.7131147540998;672.3085106382977
490485.0;2.0;2.7;-0.9;9.7;0.6000000000000001;5.300000000000001;-48.0;26.5;5.9;55.61103733;12.99474741;66.01959228515625;4.66217851638794;350.5;1.2200000286102295;829.7016129032252;673.7250000000026
491468.0;-0.5;-4.9;1.5;7.2;-5.4;7.6;-98.6;9.5;-8.899999999999999;55.611049;12.99474201;66.6187744140625;4.421688079833984;349.0;1.2200000286102295;831.7083333333327;675.1000000000004
492484.0;-0.6000000000000001;-3.2;-0.8;7.5;-3.3000000000000003;5.800000000000001;-15.7;-13.3;-42.5;55.61105945;12.99473189;67.04290771484375;4.163108825683594;340.8999938964844;1.2000000476837158;832.7073170731701;676.6250000000023
493485.0;-0.7000000000000001;-0.3;-2.3000000000000003;7.1000000000000005;-1.0;4.1000000000000005;88.00000000000001;-28.9;-20.5;55.61108047;12.99472291;60.9716796875;4.032150268554688;334.20001220703125;1.1799999475479126;834.7049180327883;678.0439560439559
494468.0;1.6;0.3;1.5;8.3;-1.5;7.300000000000001;8.600000000000001;-3.4;-25.6;55.61109978;12.99471357;59.734619140625;3.964258193969727;327.29998779296875;1.190000057220459;836.6949152542359;679.3855421686749
495473.0;2.5;0.0;3.1;10.1;-1.7000000000000002;9.1;-54.1;3.5;11.6;55.61112107;12.99470881;56.88330078125;3.9796128273010254;337.3999938964844;1.1799999475479126;837.7016129032252;680.878048780487
496485.0;0.1;1.2000000000000002;-0.7000000000000001;7.7;-0.5;5.9;12.8;6.0;7.500000000000001;55.61114229;12.994713;55.8321533203125;4.082724094390869;5.300000190734863;1.4199999570846558;839.7096774193542;682.3406593406579
497467.0;-2.5;0.3;-1.5;5.0;-0.8;4.6000000000000005;-45.1;25.7;-48.3;55.61116353;12.99471368;53.344970703125;4.242664813995361;350.1000061035156;1.2999999523162842;841.6967213114768;683.8157894736864
498486.0;1.7000000000000002;3.0;-1.5;9.4;1.6;5.1000000000000005;5.4;30.000000000000004;15.4;55.61118083;12.99471497;52.70709228515625;4.412024974822998;358.29998779296875;1.2699999809265137;843.7295081967228;685.272727272727
499484.0;-0.6000000000000001;-1.8;3.9;6.9;-3.3000000000000003;10.5;-82.7;14.5;28.600000000000005;55.61119443;12.99471526;52.47906494140625;4.55675745010376;352.29998779296875;1.2799999713897705;845.4126984126981;686.7837837837856
500484.0;-0.3;-3.5;-0.4;7.7;-3.8;6.300000000000001;-5.8;-20.5;-43.4;55.61120972;12.99471664;52.12945556640625;4.574740409851074;352.1000061035156;1.25;846.4745762711834;688.2588235294115
501484.0;-1.6;-0.8;-1.3;6.300000000000001;-1.4;4.9;67.10000000000001;-12.6;-39.0;55.61122393;12.99471558;52.58477783203125;4.708456993103027;345.0;1.2599999904632568;848.7222222222221;689.6976744186045
502484.0;0.0;0.8;1.2000000000000002;7.5;-1.4;7.9;61.2;1.1;-2.4000000000000004;55.61123599;12.99471577;52.5006103515625;4.840418815612793;349.79998779296875;1.1299999952316284;850.7120000000034;691.1720430107525
503486.0;3.7;1.6;5.7;10.5;-2.0;12.1;-34.7;2.8;29.700000000000006;55.61124826;12.9947156;52.319580078125;4.790988445281982;349.0;1.2100000381469729;851.7073170731701;692.5227272727268
504473.0;-0.4;2.4000000000000004;-0.3;6.5;-0.2;6.1000000000000005;-23.4;16.8;5.7;55.6112636;12.99471171;52.26239013671875;4.905541896820068;344.1000061035156;1.2699999809265137;853.7024793388467;694.0652173913043
505484.0;-2.5;0.8;-2.0;5.0;-0.9;4.5;-32.2;9.8;-11.2;55.61127559;12.99471071;51.97998046875;4.848045349121094;350.70001220703125;1.2200000286102295;855.7235772357717;695.4761904761926
506501.0;3.1;0.2;0.9;10.6;-1.3;7.300000000000001;-15.4;-17.6;44.3;55.61128789;12.99470637;51.5318603515625;4.768779277801514;343.29998779296875;1.25;857.7222222222221;696.8723404255313
507467.0;0.5;-3.7;0.8;8.3;-3.1;6.800000000000001;-18.0;-2.8;-27.6;55.61129865;12.99470198;52.1441650390625;4.773594379425049;343.20001220703125;1.2300000190734863;859.7024793388467;698.1573033707873
508467.0;-0.9;-0.9;-1.9;6.4;-1.7000000000000002;4.7;49.6;-15.5;-7.8;55.61131072;12.99469842;52.55731201171875;4.707154750823975;345.1000061035156;1.1799999475479126;860.7016129032252;699.5783132530123
509483.0;-0.2;1.1;0.1;7.1000000000000005;-0.7000000000000001;6.5;72.60000000000001;-11.2;4.7;55.61132346;12.9946993;52.849365234375;4.760508060455322;1.0;1.2999999523162842;862.7073170731701;701.0235294117647
510472.0;1.1;2.6;4.4;8.700000000000001;1.5;10.4;-4.5;11.4;7.300000000000001;55.61133508;12.9946995;52.35986328125;4.535364151000977;355.5;1.2100000381469729;864.6999999999994;702.4175824175807
511467.0;-0.4;0.2;-0.4;0.8;2.8000000000000003;9.0;16.1;17.7;14.900000000000002;55.61134712;12.99469828;51.72021484375;4.634764194488525;349.0;1.2400000095367432;865.6942148760368;703.807228915663
512484.0;-0.1;0.2;-2.3000000000000003;1.9;2.2;6.9;11.5;-1.5;-1.8000000000000005;55.61135895;12.99469885;50.94482421875;4.642261028289795;350.3999938964844;1.2300000190734863;867.7203389830494;705.2022471910122
513467.0;1.2000000000000002;0.5;2.0;5.0;1.5;11.3;38.1;-87.50000000000001;15.000000000000002;55.61137059;12.99469736;50.81256103515625;4.764499187469482;343.6000061035156;1.2400000095367432;869.7008547008538;706.5696202531635
514483.0;0.9;-1.6;3.8;7.6;-0.9;10.6;-108.3;-37.2;24.0;55.61138186;12.99469981;51.08319091796875;4.484879493713379;351.3999938964844;1.2200000286102295;871.7280000000035;708.070588235294
515484.0;0.2;-0.7000000000000001;-2.2;1.5;3.5;6.5;7.0;22.3;-29.4;55.6113963;12.99470748;50.7431640625;4.465053558349609;3.900000095367432;1.25;872.7120000000034;709.5238095238119
516490.0;0.5;-0.2;-2.7;2.4000000000000004;3.3000000000000003;6.2;-13.1;-5.8;14.800000000000002;55.61140893;12.99471268;50.48583984375;4.41205644607544;1.7000000476837158;1.2400000095367432;874.7107438016567;711.0240963855422
517467.0;-1.1;-0.4;-0.7000000000000001;5.1000000000000005;2.5;6.6000000000000005;25.8;15.7;51.1;55.61142176;12.99471729;50.84075927734375;4.114430904388428;2.0999999046325684;1.2100000381469729;876.7083333333327;712.4761904761926
518489.0;0.8;1.6;3.5;7.6;3.7;9.5;20.9;19.9;20.4;55.61143671;12.99471492;49.73089599609375;3.878610372543335;345.6000061035156;1.2999999523162842;877.7142857142856;714.0681818181818
519483.0;0.1;1.1;0.8;2.0;3.1;10.0;-18.0;25.0;-16.3;55.61145257;12.99471599;48.7554931640625;3.924639225006104;355.1000061035156;1.2699999809265137;879.6967213114768;715.5263157894751
520484.0;0.2;0.8;-3.3000000000000003;1.9;2.2;6.0;11.5;-5.0;-15.000000000000002;55.61146711;12.99471744;49.9586181640625;3.9870529174804688;353.8999938964844;1.2300000190734863;881.7264957264948;717.0681818181818
521483.0;0.4;0.3;-1.3;2.3000000000000003;2.1;7.300000000000001;2.2;35.3;-34.60000000000001;55.61148259;12.99472009;50.451171875;4.282068729400635;358.0;1.2400000095367432;883.716666666666;718.4302325581394
522483.0;0.7000000000000001;0.6000000000000001;2.6;3.9;2.2;11.8;-9.9;20.7;-15.1;55.61149795;12.99472709;49.6728515625;4.472275257110596;2.799999952316284;1.2799999713897705;885.7040000000034;719.8604651162789
523483.0;1.6;-1.2000000000000002;2.0;9.0;-0.1;8.0;-35.4;-44.9;30.1;55.61151021;12.99473155;47.53155517578125;4.535374641418457;358.5;1.190000057220459;886.7094017094008;721.2558139534883
524483.0;-1.7000000000000002;-2.7;-1.2000000000000002;6.7;-1.9;4.2;70.2;1.0;-44.6;55.61152422;12.99473791;47.4644775390625;4.595288276672363;7.300000190734863;1.2799999713897705;888.7177419354832;722.7500000000027
525466.0;-2.0;0.2;-1.0;5.4;-1.4;6.300000000000001;86.2;10.4;-10.0;55.61153939;12.99474527;46.733154296875;4.674379825592041;359.6000061035156;1.340000033378601;890.6960000000033;724.1956521739128
526466.0;2.8000000000000003;2.3000000000000003;2.2;9.6;0.1;9.4;37.0;0.6000000000000001;15.3;55.61155328;12.99475144;45.916015625;4.581227779388428;2.400000095367432;1.159999966621399;892.703389830507;725.6000000000022
528483.0;-1.1;1.4;-0.4;6.0;-0.1;6.0;-34.1;6.4;-9.2;55.61158321;12.99476483;46.01580810546875;4.585097789764404;2.900000095367432;1.2799999713897705;895.706349206349;728.5952380952408
529484.0;-1.7000000000000002;1.3;-1.3;6.0;0.2;5.1000000000000005;-46.1;18.5;-16.6;55.61159954;12.99477415;45.03216552734375;4.545610427856445;1.2999999523162842;1.2999999523162842;897.731092436977;730.1123595505624
530466.0;0.4;-1.3;3.0;7.7;-2.0;9.6;-42.400000000000006;-2.8;16.6;55.61161616;12.99478268;44.680908203125;4.317309856414795;359.6000061035156;1.3700000047683716;899.7154471544709;731.5121951219508
531483.0;1.0;-3.5;-0.3;8.3;-3.1;6.4;-37.8;4.2;-27.1;55.6116315;12.99479263;44.4593505859375;4.399382591247559;4.699999809265137;1.309999942779541;900.7073170731701;733.0232558139535
532483.0;-1.9;-2.0;-2.0;5.4;-2.1;4.6000000000000005;-2.7;-8.0;-42.900000000000006;55.61164666;12.99479831;45.1805419921875;4.225681781768799;0.699999988079071;1.2599999904632568;902.7073170731701;734.4761904761926
533483.0;-1.4;0.9;-1.8;6.0;-0.1;5.300000000000001;78.80000000000001;-7.699999999999999;12.6;55.61166512;12.99480207;45.53399658203125;4.102334499359131;4.0;1.2899999618530271;904.7131147540998;735.9302325581393
534500.0;0.2;1.0;1.2000000000000002;7.5;-0.6000000000000001;8.200000000000001;51.8;-6.1000000000000005;33.0;55.61168105;12.99480026;45.4993896484375;4.129605770111084;3.0;1.2699999809265137;906.7398373983733;737.4719101123619
535485.0;1.2000000000000002;0.8;4.7;8.3;-0.1;11.6;-31.6;1.9;4.2;55.61169667;12.99478923;46.180419921875;4.190944671630859;358.6000061035156;1.309999942779541;907.706349206349;738.948717948721
536483.0;0.2;0.8;-1.0;7.300000000000001;0.1;5.800000000000001;-6.8;5.300000000000001;-18.700000000000003;55.61171146;12.99477944;46.279052734375;4.161640644073486;356.0;1.2899999618530271;909.7249999999993;740.3595505617996
537488.0;-2.0;0.6000000000000001;-2.1;5.300000000000001;0.0;4.7;-4.6;7.0;-5.0;55.61172515;12.99477477;46.6162109375;4.003081321716309;356.70001220703125;1.2699999809265137;911.7631578947356;741.7901234567908
538482.0;0.0;1.3;-2.6;7.300000000000001;0.9;3.9;-6.300000000000001;11.2;2.7;55.61173957;12.99477043;46.92572021484375;4.0045552253723145;357.3999938964844;1.2999999523162842;913.7264957264948;743.4358974358988
539467.0;2.4000000000000004;1.1;-1.6;9.6;1.0;4.800000000000001;21.1;-8.8;39.0;55.61175397;12.99476576;47.42999267578125;3.989172220230103;358.20001220703125;1.2799999713897705;915.7083333333327;744.8409090909083
540482.0;0.9;-0.7000000000000001;1.1;8.1;-0.9;8.0;-15.1;-2.3;24.4;55.61176759;12.99476745;47.3380126953125;3.949747085571289;8.100000381469727;1.350000023841858;916.7258064516122;746.2631578947376
541483.0;0.7000000000000001;-2.9000000000000004;0.5;8.1;-3.0;7.4;-41.6;8.2;-42.60000000000001;55.61178136;12.99477162;47.0234375;3.9925944805145264;4.800000190734863;1.3200000524520874;918.7120000000034;747.8607594936693
542482.0;-0.9;-2.1;-0.6000000000000001;6.300000000000001;-1.6;6.300000000000001;21.500000000000004;-8.4;-29.300000000000004;55.61179562;12.9947721;47.2158203125;4.035947799682617;5.099999904632568;1.3899999856948853;920.7118644067782;749.3529411764703
543482.0;-1.7000000000000002;0.0;-2.4000000000000004;5.5;-0.1;4.5;44.8;6.2;-10.2;55.61181067;12.99477171;46.63818359375;4.030275344848633;356.0;1.3600000143051147;922.7154471544709;750.8095238095275
544482.0;-0.7000000000000001;0.4;0.1;6.7;0.4;7.0;31.4;6.300000000000001;14.6;55.61182533;12.9947734;47.08795166015625;3.876544713973999;2.400000095367432;1.3600000143051147;923.7154471544709;752.2976190476204
545483.0;1.0;1.3;4.2;8.3;1.6;11.4;18.5;2.7;31.9;55.61184128;12.99477703;47.3638916015625;3.8211207389831534;8.300000190734863;1.3700000047683716;925.7016129032252;753.7619047619082
546482.0;1.5;-0.2;1.2000000000000002;9.0;0.3;7.9;-23.2;5.300000000000001;-10.9;55.61185667;12.99477857;47.60711669921875;3.839393377304077;0.699999988079071;1.3600000143051147;927.7190082644667;755.2444444444434
547484.0;-1.1;0.2;-1.3;6.2;0.7000000000000001;5.6000000000000005;-8.4;8.5;-39.50000000000001;55.61187081;12.99478164;47.5985107421875;3.790092468261719;4.699999809265137;1.3700000047683716;929.706349206349;756.7000000000025
548482.0;-2.8000000000000003;0.2;-2.1;4.6000000000000005;0.7000000000000001;4.6000000000000005;-30.4;15.8;-50.400000000000006;55.61188546;12.99478476;47.37677001953125;3.790092468261719;359.6000061035156;1.3700000047683716;931.7073170731701;758.1839080459777
549482.0;1.7000000000000002;-0.5;0.6000000000000001;9.4;0.0;6.7;-4.1;-13.3;35.9;55.61189866;12.99478753;47.60589599609375;3.790092468261719;1.5;1.340000033378601;932.7131147540998;759.6341463414628
550483.0;0.8;-1.9;-0.6000000000000001;8.700000000000001;0.2;5.5;-38.1;4.300000000000001;-29.700000000000006;55.61191459;12.9947916;48.0758056640625;3.790092468261719;351.1000061035156;1.3700000047683716;934.7120000000034;761.0952380952385
551488.0;0.7000000000000001;-0.2;1.2000000000000002;4.3;1.3;9.3;1.4;89.0;-69.80000000000001;55.61192937;12.99479586;48.11004638671875;3.790092468261719;2.799999952316284;1.399999976158142;936.7073170731701;762.545454545454
552467.0;0.3;0.0;-2.1;3.2;1.9;6.7;35.0;-12.1;23.1;55.61194356;12.99480377;48.08270263671875;3.790092468261719;7.099999904632568;1.2799999713897705;938.7094017094008;764.0898876404499
553482.0;-1.5;0.1;0.3;5.6000000000000005;2.0;7.4;29.700000000000006;3.3000000000000007;27.4;55.61195852;12.99481237;47.636962890625;3.790092468261719;6.400000095367432;1.2999999523162842;939.7280000000035;765.5365853658532
554487.0;2.1;1.5;3.8;9.9;1.6;10.6;21.6;5.2;25.8;55.6119722;12.99481407;47.62725830078125;3.790092468261719;358.8999938964844;1.3300000429153442;941.706349206349;766.9772727272718
555484.0;1.6;0.1;0.9;9.7;0.2;6.9;-3.1;3.5;1.2000000000000002;55.61198668;12.99481985;47.49151611328125;3.790092468261719;3.700000047683716;1.2400000095367432;943.7288135593205;768.4157303370807
556482.0;-2.0;0.8;-1.8;5.9;1.5;3.9;-14.0;13.4;-9.5;55.61200273;12.99482393;48.24053955078125;3.790092468261719;2.5999999046325684;1.3700000047683716;945.7272727272766;769.8987341772136
557485.0;-1.5;1.4;-0.8;6.9;2.1;4.7;-22.3;17.0;-10.5;55.61201692;12.99482661;48.22198486328125;3.790092468261719;0.1000000014901161;1.3600000143051147;947.7213114754113;771.3750000000014
558468.0;1.7000000000000002;-0.1;0.3;9.5;1.5;6.5;13.7;-14.800000000000002;38.1;55.61203091;12.99482972;47.70654296875;3.790092468261719;359.6000061035156;1.4299999475479126;949.6854838709671;772.8139534883719
559465.0;1.6;-2.3000000000000003;-0.4;9.2;-0.1;5.6000000000000005;-27.3;4.5;-0.6000000000000001;55.61204628;12.99483077;47.7030029296875;3.790092468261719;356.20001220703125;1.4600000381469729;950.6974789915987;774.1604938271606
560482.0;-0.6000000000000001;-1.1;-0.8;5.9;1.4;6.2;15.2;0.8;-9.7;55.61205911;12.99482613;47.53765869140625;3.790092468261719;350.0;1.350000023841858;952.706349206349;775.6590909090903
561482.0;-0.8;-0.2;-2.5;6.300000000000001;1.8;4.2;81.50000000000001;-3.1;25.4;55.61207237;12.9948247;47.13360595703125;3.790092468261719;352.8999938964844;1.3300000429153442;954.7049180327883;777.0963855421687
562482.0;-0.1;-0.5;1.7000000000000002;6.6000000000000005;0.6000000000000001;8.8;38.60000000000001;-3.7000000000000006;62.8;55.61208671;12.99482025;45.920166015625;3.790092468261719;355.5;1.2899999618530271;955.7190082644667;778.533333333331
563482.0;-0.1;-1.0;2.1;2.3000000000000003;1.0;11.8;-18.200000000000003;40.6;-9.8;55.61209751;12.99481628;45.01373291015625;3.790092468261719;358.29998779296875;1.3600000143051147;957.7295081967228;780.0246913580247
564483.0;-0.3;0.8;0.5;5.2;1.9;8.5;19.300000000000004;-38.0;39.0;55.6121095;12.99481;44.77569580078125;3.790092468261719;5.099999904632568;1.2200000286102295;959.7073170731701;781.4772727272723
565498.0;-0.2;1.2000000000000002;-1.2000000000000002;6.2;1.2000000000000002;5.5;-7.6;-9.5;4.0;55.61212461;12.99479627;45.19281005859375;3.790092468261719;359.20001220703125;1.4900000095367432;961.7355371900866;783.046511627907
566481.0;-1.1;1.5;-1.6;6.5;1.4;5.4;-13.7;24.1;-20.4;55.61213971;12.99478068;45.248779296875;3.790092468261719;0.8999999761581421;1.440000057220459;963.7235772357717;784.4819277108436
567465.0;0.7000000000000001;-1.4;0.4;8.1;0.3;6.7;-34.60000000000001;-8.0;11.6;55.61215392;12.99476166;45.52862548828125;3.790092468261719;352.8999938964844;1.440000057220459;964.690476190476;785.8863636363628
568481.0;-0.2;-1.0;-1.0;7.7;1.1;4.4;5.9;-2.6;15.5;55.61216682;12.99474373;45.58056640625;3.8692898750305176;352.20001220703125;1.2799999713897705;967.7288135593205;787.2476190476184
569481.0;-0.4;-1.1;-0.6000000000000001;7.0;0.4;5.6000000000000005;45.9;-4.6;16.900000000000002;55.61217771;12.99471685;45.6524658203125;3.861936330795288;319.70001220703125;1.559999942779541;968.7280000000035;788.3793103448252
570481.0;-1.6;-0.8;-2.8000000000000003;5.9;0.9;3.8;29.90000000000001;9.7;-10.5;55.61218295;12.99468312;46.50030517578125;3.920125722885132;290.20001220703125;1.559999942779541;970.7016129032252;789.6097560975604
571465.0;-0.3;0.3;1.9;7.0;1.2000000000000002;8.8;17.6;4.300000000000001;20.8;55.61218377;12.99465091;46.62786865234375;3.910315752029419;277.20001220703125;1.409999966621399;972.6694214876069;791.0253164556962
